; Refractive index spectrum of AZ BARLi II Bottom Antireflection Coating
; Measured with VASE, Q. Wang, NIST, April 2015
;
; lambda/um    n        k
0.25134  1.64617  0.17087
0.25293  1.64927  0.17189
0.25452  1.65338  0.17188
0.25611  1.65875  0.17025
0.25770  1.66474  0.16689
0.25929  1.67076  0.16146
0.26088  1.67628  0.15366
0.26247  1.68050  0.14376
0.26406  1.68277  0.13220
0.26565  1.68276  0.11951
0.26724  1.68019  0.10633
0.26883  1.67487  0.09340
0.27042  1.66715  0.08143
0.27201  1.65759  0.07115
0.27360  1.64650  0.06299
0.27519  1.63423  0.05727
0.27678  1.62179  0.05415
0.27837  1.61006  0.05347
0.27996  1.59935  0.05443
0.28155  1.58973  0.05623
0.28314  1.58106  0.05852
0.28473  1.57315  0.06102
0.28632  1.56583  0.06362
0.28791  1.55892  0.06622
0.28950  1.55232  0.06888
0.29109  1.54597  0.07165
0.29268  1.53985  0.07455
0.29428  1.53395  0.07759
0.29587  1.52824  0.08079
0.29746  1.52267  0.08422
0.29905  1.51721  0.08788
0.30064  1.51182  0.09178
0.30223  1.50650  0.09594
0.30382  1.50125  0.10042
0.30541  1.49609  0.10525
0.30700  1.49101  0.11046
0.30859  1.48602  0.11605
0.31018  1.48118  0.12211
0.31177  1.47658  0.12875
0.31337  1.47231  0.13601
0.31496  1.46843  0.14378
0.31655  1.46501  0.15194
0.31814  1.46212  0.16052
0.31973  1.45985  0.16960
0.32132  1.45826  0.17922
0.32291  1.45741  0.18925
0.32450  1.45734  0.19955
0.32610  1.45814  0.21000
0.32769  1.45990  0.22048
0.32928  1.46271  0.23090
0.33087  1.46653  0.24116
0.33246  1.47128  0.25115
0.33405  1.47687  0.26078
0.33564  1.48318  0.26994
0.33724  1.49012  0.27852
0.33883  1.49766  0.28639
0.34042  1.50595  0.29339
0.34201  1.51514  0.29936
0.34360  1.52508  0.30425
0.34519  1.53521  0.30814
0.34679  1.54498  0.31112
0.34838  1.55412  0.31330
0.34997  1.56277  0.31486
0.35156  1.57112  0.31593
0.35315  1.57926  0.31664
0.35475  1.58722  0.31705
0.35634  1.59498  0.31723
0.35793  1.60256  0.31721
0.35952  1.61007  0.31695
0.36111  1.61761  0.31640
0.36271  1.62524  0.31550
0.36430  1.63276  0.31426
0.36589  1.63982  0.31266
0.36748  1.64614  0.31071
0.36907  1.65167  0.30842
0.37067  1.65666  0.30580
0.37226  1.66136  0.30288
0.37385  1.66595  0.29972
0.37544  1.67038  0.29649
0.37703  1.67453  0.29339
0.37863  1.67831  0.29060
0.38022  1.68169  0.28820
0.38181  1.68482  0.28607
0.38340  1.68780  0.28412
0.38499  1.69076  0.28226
0.38659  1.69368  0.28043
0.38818  1.69648  0.27863
0.38977  1.69908  0.27681
0.39136  1.70144  0.27497
0.39296  1.70367  0.27320
0.39455  1.70591  0.27160
0.39614  1.70829  0.27026
0.39773  1.71092  0.26924
0.39932  1.71385  0.26842
0.40092  1.71710  0.26761
0.40251  1.72070  0.26668
0.40410  1.72465  0.26548
0.40569  1.72882  0.26399
0.40729  1.73306  0.26222
0.40888  1.73722  0.26016
0.41047  1.74117  0.25781
0.41206  1.74489  0.25521
0.41365  1.74839  0.25239
0.41525  1.75169  0.24941
0.41684  1.75481  0.24630
0.41843  1.75774  0.24310
0.42002  1.76050  0.23986
0.42162  1.76307  0.23663
0.42321  1.76544  0.23344
0.42480  1.76763  0.23032
0.42639  1.76970  0.22729
0.42799  1.77171  0.22436
0.42958  1.77374  0.22152
0.43117  1.77585  0.21879
0.43276  1.77808  0.21615
0.43435  1.78045  0.21357
0.43595  1.78294  0.21104
0.43754  1.78558  0.20852
0.43913  1.78836  0.20598
0.44072  1.79129  0.20339
0.44232  1.79433  0.20066
0.44391  1.79748  0.19772
0.44550  1.80074  0.19451
0.44709  1.80407  0.19097
0.44869  1.80743  0.18708
0.45028  1.81075  0.18288
0.45187  1.81394  0.17837
0.45346  1.81694  0.17359
0.45505  1.81968  0.16856
0.45665  1.82212  0.16328
0.45824  1.82427  0.15780
0.45983  1.82613  0.15213
0.46142  1.82772  0.14631
0.46301  1.82902  0.14035
0.46461  1.83005  0.13428
0.46620  1.83077  0.12814
0.46779  1.83116  0.12199
0.46938  1.83119  0.11586
0.47098  1.83082  0.10979
0.47257  1.83005  0.10382
0.47416  1.82889  0.09797
0.47575  1.82741  0.09228
0.47734  1.82568  0.08678
0.47893  1.82374  0.08147
0.48053  1.82168  0.07639
0.48212  1.81952  0.07157
0.48371  1.81729  0.06699
0.48530  1.81497  0.06264
0.48689  1.81256  0.05850
0.48849  1.81006  0.05457
0.49008  1.80745  0.05084
0.49167  1.80473  0.04728
0.49326  1.80193  0.04389
0.49485  1.79906  0.04069
0.49645  1.79614  0.03766
0.49804  1.79321  0.03482
0.49963  1.79028  0.03216
0.50122  1.78737  0.02968
0.50281  1.78449  0.02738
0.50440  1.78164  0.02525
0.50599  1.77883  0.02327
0.50759  1.77603  0.02143
0.50918  1.77327  0.01972
0.51077  1.77052  0.01813
0.51236  1.76781  0.01665
0.51395  1.76512  0.01527
0.51554  1.76248  0.01399
0.51713  1.75990  0.01281
0.51873  1.75737  0.01172
0.52032  1.75491  0.01072
0.52191  1.75253  0.00981
0.52350  1.75022  0.00898
0.52509  1.74800  0.00823
0.52668  1.74585  0.00755
0.52827  1.74377  0.00693
0.52986  1.74177  0.00637
0.53146  1.73984  0.00585
0.53305  1.73798  0.00538
0.53464  1.73619  0.00495
0.53623  1.73444  0.00456
0.53782  1.73274  0.00420
0.53941  1.73107  0.00387
0.54100  1.72942  0.00358
0.54259  1.72778  0.00331
0.54418  1.72614  0.00307
0.54577  1.72448  0.00285
0.54736  1.72283  0.00265
0.54895  1.72119  0.00247
0.55054  1.71958  0.00231
0.55213  1.71799  0.00217
0.55373  1.71645  0.00204
0.55532  1.71496  0.00192
0.55691  1.71354  0.00181
0.55850  1.71218  0.00171
0.56009  1.71088  0.00162
0.56168  1.70963  0.00153
0.56327  1.70843  0.00145
0.56486  1.70727  0.00137
0.56645  1.70614  0.00129
0.56804  1.70504  0.00122
0.56963  1.70396  0.00114
0.57122  1.70289  0.00106
0.57281  1.70184  0.00099
0.57440  1.70081  0.00091
0.57599  1.69980  0.00084
0.57758  1.69880  0.00077
0.57917  1.69783  0.00071
0.58076  1.69688  0.00066
0.58235  1.69595  0.00061
0.58393  1.69504  0.00057
0.58552  1.69416  0.00055
0.58711  1.69329  0.00052
0.58870  1.69244  0.00050
0.59029  1.69160  0.00049
0.59188  1.69078  0.00047
0.59347  1.68998  0.00045
0.59506  1.68918  0.00043
0.59665  1.68840  0.00041
0.59824  1.68762  0.00038
0.59983  1.68685  0.00035
0.60142  1.68609  0.00031
0.60300  1.68534  0.00027
0.60459  1.68461  0.00023
0.60618  1.68389  0.00019
0.60777  1.68318  0.00015
0.60936  1.68248  0.00012
0.61095  1.68181  0.00009
0.61254  1.68115  0.00007
0.61412  1.68050  0.00005
0.61571  1.67988  0.00003
0.61730  1.67926  0.00002
0.61889  1.67864  0.00001
0.62048  1.67804  0.00001
0.62207  1.67744  0.00000
0.62365  1.67685  0.00000
0.62524  1.67625  0.00000
0.62683  1.67566  0.00000
0.62842  1.67506  0.00000
0.63000  1.67446  0.00000
0.63159  1.67386  0.00000
0.63318  1.67327  0.00000
0.63477  1.67268  0.00000
0.63635  1.67210  0.00000
0.63794  1.67153  0.00000
0.63953  1.67097  0.00000
0.64112  1.67043  0.00000
0.64270  1.66989  0.00000
0.64429  1.66938  0.00000
0.64588  1.66888  0.00000
0.64746  1.66840  0.00000
0.64905  1.66793  0.00000
0.65064  1.66747  0.00000
0.65222  1.66702  0.00000
0.65381  1.66658  0.00000
0.65540  1.66614  0.00000
0.65698  1.66571  0.00000
0.65857  1.66528  0.00000
0.66016  1.66485  0.00000
0.66174  1.66442  0.00000
0.66333  1.66399  0.00000
0.66492  1.66356  0.00000
0.66650  1.66314  0.00000
0.66809  1.66271  0.00000
0.66967  1.66229  0.00000
0.67126  1.66186  0.00000
0.67284  1.66144  0.00000
0.67443  1.66102  0.00000
0.67602  1.66061  0.00000
0.67760  1.66020  0.00000
0.67919  1.65979  0.00000
0.68077  1.65939  0.00000
0.68236  1.65900  0.00000
0.68394  1.65861  0.00000
0.68553  1.65822  0.00000
0.68711  1.65784  0.00000
0.68870  1.65747  0.00000
0.69028  1.65710  0.00000
0.69186  1.65674  0.00000
0.69345  1.65639  0.00000
0.69503  1.65605  0.00000
0.69662  1.65571  0.00000
0.69820  1.65538  0.00000
0.69979  1.65506  0.00000
0.70137  1.65475  0.00000
0.70295  1.65444  0.00000
0.70454  1.65414  0.00000
0.70612  1.65385  0.00000
0.70771  1.65356  0.00000
0.70929  1.65327  0.00000
0.71087  1.65298  0.00000
0.71246  1.65270  0.00000
0.71404  1.65242  0.00000
0.71562  1.65213  0.00000
0.71721  1.65185  0.00000
0.71879  1.65157  0.00000
0.72037  1.65129  0.00000
0.72195  1.65100  0.00000
0.72354  1.65072  0.00000
0.72512  1.65043  0.00000
0.72670  1.65015  0.00000
0.72828  1.64986  0.00000
0.72987  1.64958  0.00000
0.73145  1.64930  0.00000
0.73303  1.64901  0.00000
0.73461  1.64874  0.00000
0.73619  1.64846  0.00000
0.73778  1.64818  0.00000
0.73936  1.64791  0.00000
0.74094  1.64764  0.00000
0.74252  1.64737  0.00000
0.74410  1.64711  0.00000
0.74568  1.64684  0.00000
0.74726  1.64658  0.00000
0.74884  1.64633  0.00000
0.75043  1.64607  0.00000
0.75201  1.64582  0.00000
0.75359  1.64557  0.00000
0.75517  1.64532  0.00000
0.75675  1.64508  0.00000
0.75833  1.64484  0.00000
0.75991  1.64460  0.00000
0.76149  1.64436  0.00000
0.76307  1.64413  0.00000
0.76465  1.64390  0.00000
0.76623  1.64367  0.00000
0.76781  1.64345  0.00000
0.76939  1.64323  0.00000
0.77097  1.64301  0.00000
0.77255  1.64279  0.00000
0.77412  1.64257  0.00000
0.77570  1.64236  0.00000
0.77728  1.64215  0.00000
0.77886  1.64194  0.00000
0.78044  1.64174  0.00000
0.78202  1.64154  0.00000
0.78360  1.64134  0.00000
0.78518  1.64114  0.00000
0.78675  1.64094  0.00000
0.78833  1.64074  0.00000
0.78991  1.64055  0.00000
0.79149  1.64036  0.00000
0.79306  1.64017  0.00000
0.79464  1.63999  0.00000
0.79622  1.63980  0.00000
0.79780  1.63962  0.00000
0.79937  1.63943  0.00000
0.80095  1.63925  0.00000
0.80253  1.63907  0.00000
0.80411  1.63889  0.00000
0.80568  1.63872  0.00000
0.80726  1.63854  0.00000
0.80883  1.63837  0.00000
0.81041  1.63820  0.00000
0.81199  1.63803  0.00000
0.81356  1.63786  0.00000
0.81514  1.63769  0.00000
0.81671  1.63752  0.00000
0.81829  1.63736  0.00000
0.81987  1.63720  0.00000
0.82144  1.63703  0.00000
0.82302  1.63687  0.00000
0.82459  1.63671  0.00000
0.82617  1.63656  0.00000
0.82774  1.63640  0.00000
0.82932  1.63624  0.00000
0.83089  1.63609  0.00000
0.83246  1.63594  0.00000
0.83404  1.63579  0.00000
0.83561  1.63564  0.00000
0.83719  1.63550  0.00000
0.83876  1.63535  0.00000
0.84033  1.63521  0.00000
0.84191  1.63507  0.00000
0.84348  1.63493  0.00000
0.84505  1.63479  0.00000
0.84663  1.63466  0.00000
0.84820  1.63453  0.00000
0.84977  1.63439  0.00000
0.85135  1.63426  0.00000
0.85292  1.63413  0.00000
0.85449  1.63400  0.00000
0.85606  1.63388  0.00000
0.85764  1.63375  0.00000
0.85921  1.63363  0.00000
0.86078  1.63350  0.00000
0.86235  1.63338  0.00000
0.86392  1.63326  0.00000
0.86549  1.63314  0.00000
0.86707  1.63302  0.00000
0.86864  1.63290  0.00000
0.87021  1.63278  0.00000
0.87178  1.63267  0.00000
0.87335  1.63255  0.00000
0.87492  1.63243  0.00000
0.87649  1.63232  0.00000
0.87806  1.63221  0.00000
0.87963  1.63210  0.00000
0.88120  1.63199  0.00000
0.88277  1.63188  0.00000
0.88434  1.63177  0.00000
0.88591  1.63166  0.00000
0.88748  1.63156  0.00000
0.88905  1.63146  0.00000
0.89062  1.63136  0.00000
0.89218  1.63126  0.00000
0.89375  1.63117  0.00000
0.89532  1.63107  0.00000
0.89689  1.63098  0.00000
0.89846  1.63089  0.00000
0.90003  1.63081  0.00000
0.90159  1.63072  0.00000
0.90316  1.63064  0.00000
0.90473  1.63056  0.00000
0.90630  1.63048  0.00000
0.90786  1.63041  0.00000
0.90943  1.63033  0.00000
0.91100  1.63026  0.00000
0.91256  1.63019  0.00000
0.91413  1.63011  0.00000
0.91570  1.63004  0.00000
0.91726  1.62997  0.00000
0.91883  1.62990  0.00000
0.92039  1.62983  0.00000
0.92196  1.62975  0.00000
0.92353  1.62968  0.00000
0.92509  1.62960  0.00000
0.92666  1.62953  0.00000
0.92822  1.62945  0.00000
0.92979  1.62937  0.00000
0.93135  1.62929  0.00000
0.93292  1.62921  0.00000
0.93448  1.62913  0.00000
0.93604  1.62904  0.00000
0.93761  1.62895  0.00000
0.93917  1.62886  0.00000
0.94074  1.62877  0.00000
0.94230  1.62867  0.00000
0.94386  1.62858  0.00000
0.94542  1.62848  0.00000
0.94699  1.62838  0.00000
0.94855  1.62829  0.00000
0.95011  1.62819  0.00000
0.95168  1.62809  0.00000
0.95324  1.62799  0.00000
0.95480  1.62790  0.00000
0.95636  1.62780  0.00000
0.95792  1.62770  0.00000
0.95948  1.62761  0.00000
0.96105  1.62751  0.00000
0.96261  1.62742  0.00000
0.96417  1.62732  0.00000
0.96573  1.62723  0.00000
0.96729  1.62714  0.00000
0.96885  1.62705  0.00000
0.97041  1.62697  0.00000
0.97197  1.62688  0.00000
0.97353  1.62680  0.00000
0.97509  1.62672  0.00000
0.97665  1.62664  0.00000
0.97821  1.62657  0.00000
0.97977  1.62649  0.00000
0.98133  1.62642  0.00000
0.98288  1.62634  0.00000
0.98444  1.62627  0.00000
0.98600  1.62619  0.00000
0.98756  1.62612  0.00000
0.98912  1.62604  0.00000
0.99068  1.62597  0.00000
0.99223  1.62589  0.00000
0.99379  1.62582  0.00000
0.99535  1.62574  0.00000
0.99690  1.62566  0.00000
0.99846  1.62558  0.00000
1.01183  1.62480  0.00000
1.01522  1.62457  0.00000
1.01861  1.62433  0.00000
1.02201  1.62408  0.00000
1.02541  1.62383  0.00000
1.02880  1.62358  0.00000
1.03220  1.62333  0.00000
1.03559  1.62309  0.00000
1.03899  1.62285  0.00000
1.04239  1.62262  0.00000
1.04579  1.62241  0.00000
1.04919  1.62221  0.00000
1.05259  1.62203  0.00000
1.05599  1.62187  0.00000
1.05939  1.62173  0.00000
1.06279  1.62160  0.00000
1.06619  1.62149  0.00000
1.06959  1.62139  0.00000
1.07299  1.62130  0.00000
1.07639  1.62122  0.00000
1.07980  1.62113  0.00000
1.08320  1.62105  0.00000
1.08660  1.62097  0.00000
1.09001  1.62089  0.00000
1.09341  1.62079  0.00000
1.09682  1.62070  0.00000
1.10022  1.62059  0.00000
1.10363  1.62047  0.00000
1.10703  1.62034  0.00000
1.11044  1.62021  0.00000
1.11385  1.62006  0.00000
1.11726  1.61991  0.00000
1.12066  1.61976  0.00000
1.12407  1.61960  0.00000
1.12748  1.61943  0.00000
1.13089  1.61927  0.00000
1.13430  1.61911  0.00000
1.13771  1.61895  0.00000
1.14112  1.61879  0.00000
1.14453  1.61864  0.00000
1.14795  1.61848  0.00000
1.15136  1.61834  0.00000
1.15477  1.61820  0.00000
1.15818  1.61807  0.00000
1.16160  1.61794  0.00000
1.16501  1.61782  0.00000
1.16843  1.61770  0.00000
1.17184  1.61758  0.00000
1.17526  1.61747  0.00000
1.17867  1.61736  0.00000
1.18209  1.61725  0.00000
1.18551  1.61714  0.00000
1.18892  1.61703  0.00000
1.19234  1.61693  0.00000
1.19576  1.61682  0.00000
1.19918  1.61671  0.00000
1.20260  1.61660  0.00000
1.20602  1.61649  0.00000
1.20944  1.61638  0.00000
1.21286  1.61627  0.00000
1.21628  1.61615  0.00000
1.21970  1.61603  0.00000
1.22312  1.61591  0.00000
1.22654  1.61579  0.00000
1.22996  1.61567  0.00000
1.23339  1.61554  0.00000
1.23681  1.61542  0.00000
1.24024  1.61529  0.00000
1.24366  1.61516  0.00000
1.24708  1.61503  0.00000
1.25051  1.61490  0.00000
1.25394  1.61477  0.00000
1.25736  1.61464  0.00000
1.26079  1.61451  0.00000
1.26422  1.61437  0.00000
1.26764  1.61424  0.00000
1.27107  1.61411  0.00000
1.27450  1.61397  0.00000
1.27793  1.61384  0.00000
1.28136  1.61371  0.00000
1.28479  1.61357  0.00000
1.28822  1.61344  0.00000
1.29165  1.61331  0.00000
1.29508  1.61317  0.00000
1.29851  1.61304  0.00000
1.30194  1.61290  0.00000
1.30538  1.61276  0.00000
1.30881  1.61263  0.00000
1.31224  1.61249  0.00000
1.31568  1.61235  0.00000
1.31911  1.61221  0.00000
1.32255  1.61207  0.00000
1.32598  1.61193  0.00000
1.32942  1.61179  0.00000
1.33285  1.61164  0.00000
1.33629  1.61150  0.00000
1.33973  1.61135  0.00000
1.34316  1.61121  0.00000
1.34660  1.61106  0.00000
1.35004  1.61091  0.00000
1.35348  1.61076  0.00000
1.35692  1.61061  0.00000
1.36036  1.61046  0.00000
1.36380  1.61031  0.00000
1.36724  1.61016  0.00000
1.37068  1.61001  0.00000
1.37412  1.60986  0.00000
1.37756  1.60971  0.00000
1.38101  1.60956  0.00000
1.38445  1.60941  0.00000
1.38789  1.60926  0.00000
1.39134  1.60911  0.00000
1.39478  1.60896  0.00000
1.39823  1.60881  0.00000
1.40167  1.60866  0.00000
1.40512  1.60851  0.00000
1.40856  1.60836  0.00000
1.41201  1.60821  0.00000
1.41546  1.60807  0.00000
1.41890  1.60792  0.00000
1.42235  1.60778  0.00000
1.42580  1.60764  0.00000
1.42925  1.60749  0.00000
1.43270  1.60735  0.00000
1.43615  1.60721  0.00000
1.43960  1.60708  0.00000
1.44305  1.60694  0.00000
1.44650  1.60680  0.00000
1.44995  1.60667  0.00000
1.45340  1.60654  0.00000
1.45685  1.60640  0.00000
1.46031  1.60627  0.00000
1.46376  1.60614  0.00000
1.46721  1.60602  0.00000
1.47067  1.60589  0.00000
1.47412  1.60577  0.00000
1.47758  1.60565  0.00000
1.48103  1.60553  0.00000
1.48449  1.60541  0.00000
1.48795  1.60530  0.00000
1.49140  1.60518  0.00000
1.49486  1.60507  0.00000
1.49832  1.60496  0.00000
1.50178  1.60486  0.00000
1.50524  1.60475  0.00000
1.50869  1.60465  0.00000
1.51215  1.60455  0.00000
1.51561  1.60444  0.00000
1.51907  1.60435  0.00000
1.52254  1.60425  0.00000
1.52600  1.60416  0.00000
1.52946  1.60406  0.00000
1.53292  1.60397  0.00000
1.53638  1.60388  0.00000
1.53985  1.60379  0.00000
1.54331  1.60370  0.00000
1.54678  1.60362  0.00000
1.55024  1.60353  0.00000
1.55370  1.60345  0.00000
1.55717  1.60337  0.00000
1.56064  1.60328  0.00000
1.56410  1.60320  0.00000
1.56757  1.60312  0.00000
1.57104  1.60304  0.00000
1.57450  1.60296  0.00000
1.57797  1.60288  0.00000
1.58144  1.60281  0.00000
1.58491  1.60273  0.00000
1.58838  1.60265  0.00000
1.59185  1.60258  0.00000
1.59532  1.60250  0.00000
1.59879  1.60242  0.00000
