; From SOPRA S.A. http://www.sopra-sa.com/indices.htm
; Filename    Symbol               Range (nm)     Description
; AGAINP7     (Al.7Ga.3)0.5In0.5P 225     1000    Aluminum Gallium Indium Phosphide (70% Al)
; lambda/um       n         k
0.22500  1.557894  2.638763
0.22750  1.598270  2.693468
0.23000  1.643976  2.751373
0.23250  1.696306  2.812361
0.23500  1.756822  2.876044
0.23750  1.827368  2.941605
0.24000  1.910009  3.007590
0.24250  2.006884  3.071648
0.24500  2.119885  3.130239
0.24750  2.250070  3.178437
0.25000  2.396785  3.209999
0.25250  2.556649  3.218020
0.25500  2.722792  3.196416
0.25750  2.885132  3.142045
0.26000  3.032239  3.056604
0.26250  3.154135  2.947146
0.26500  3.245348  2.824162
0.26750  3.305582  2.698700
0.27000  3.338716  2.579740
0.27250  3.350767  2.473017
0.27500  3.348057  2.381185
0.27750  3.336115  2.304641
0.28000  3.319266  2.242441
0.28250  3.300646  2.193001
0.28500  3.282418  2.154549
0.28750  3.266000  2.125381
0.29000  3.252293  2.103971
0.29250  3.241849  2.089008
0.29500  3.235002  2.079395
0.29750  3.231954  2.074214
0.30000  3.232846  2.072690
0.30250  3.237748  2.074277
0.30500  3.246565  2.078954
0.30750  3.259985  2.084875
0.31000  3.277864  2.092245
0.31250  3.300406  2.100516
0.31500  3.327817  2.109105
0.31750  3.360302  2.117351
0.32000  3.398032  2.124485
0.32250  3.441104  2.129619
0.32500  3.489435  2.131733
0.32750  3.542789  2.129718
0.33000  3.600647  2.122406
0.33250  3.662177  2.108660
0.33500  3.726216  2.087477
0.33750  3.791287  2.058114
0.34000  3.855688  2.020202
0.34250  3.917608  1.973834
0.34500  3.975289  1.919592
0.34750  4.027201  1.858505
0.35000  4.072161  1.791951
0.35250  4.109423  1.721512
0.35500  4.138694  1.648813
0.35750  4.160085  1.575391
0.36000  4.174035  1.502596
0.36250  4.181214  1.431527
0.36500  4.182421  1.363014
0.36750  4.178508  1.297645
0.37000  4.170316  1.235779
0.37250  4.158630  1.177602
0.37500  4.144162  1.123155
0.37750  4.127531  1.072377
0.38000  4.109271  1.025142
0.38250  4.089829  0.981270
0.38500  4.069576  0.940553
0.38750  4.048811  0.902773
0.39000  4.027794  0.867735
0.39250  4.006712  0.835209
0.39500  3.985723  0.804994
0.39750  3.964949  0.776896
0.40000  3.944507  0.750746
0.40250  3.924246  0.726279
0.40500  3.904012  0.703253
0.40750  3.884875  0.681991
0.41000  3.866197  0.662062
0.41250  3.848034  0.643366
0.41500  3.830395  0.625797
0.41750  3.813282  0.609259
0.42000  3.796697  0.593666
0.42250  3.780631  0.578938
0.42500  3.765081  0.565001
0.42750  3.750036  0.551790
0.43000  3.735483  0.539247
0.43250  3.721413  0.527314
0.43500  3.707812  0.515942
0.43750  3.694664  0.505087
0.44000  3.681958  0.494704
0.44250  3.669679  0.484758
0.44500  3.657813  0.475211
0.44750  3.646347  0.466030
0.45000  3.635264  0.457186
0.45250  3.624551  0.448648
0.45500  3.614199  0.440396
0.45750  3.604194  0.432402
0.46000  3.594520  0.424643
0.46250  3.585167  0.417099
0.46500  3.576122  0.409748
0.46750  3.567374  0.402573
0.47000  3.558909  0.395555
0.47250  3.550718  0.388677
0.47500  3.542788  0.381922
0.47750  3.535108  0.375275
0.48000  3.527668  0.368719
0.48250  3.520458  0.362240
0.48500  3.513464  0.355822
0.48750  3.506675  0.349451
0.49000  3.500082  0.343112
0.49250  3.493670  0.336788
0.49500  3.487428  0.330464
0.49750  3.481343  0.324125
0.50000  3.475398  0.317752
0.50250  3.469577  0.311327
0.50500  3.463861  0.304831
0.50750  3.458226  0.298242
0.51000  3.452646  0.291538
0.51250  3.447085  0.284695
0.51500  3.441496  0.277685
0.51750  3.435822  0.270484
0.52000  3.429984  0.263077
0.52250  3.423872  0.255458
0.52500  3.417343  0.247662
0.52750  3.410231  0.239797
0.53000  3.402402  0.232095
0.53250  3.393860  0.224882
0.53500  3.384823  0.218453
0.53750  3.375624  0.212910
0.54000  3.366549  0.208165
0.54250  3.357752  0.204056
0.54500  3.349290  0.200428
0.54750  3.341169  0.197163
0.55000  3.333370  0.194177
0.55250  3.325871  0.191411
0.55500  3.318647  0.188822
0.55750  3.311675  0.186378
0.56000  3.304935  0.184059
0.56250  3.298409  0.181845
0.56500  3.292079  0.179724
0.56750  3.285934  0.177685
0.57000  3.279961  0.175720
0.57250  3.274148  0.173822
0.57500  3.268488  0.171986
0.57750  3.262968  0.170204
0.58000  3.257586  0.168476
0.58250  3.252331  0.166797
0.58500  3.247198  0.165164
0.58750  3.242182  0.163573
0.59000  3.237277  0.162023
0.59250  3.232479  0.160512
0.59500  3.227782  0.159038
0.59750  3.223183  0.157598
0.60000  3.218679  0.156192
0.60250  3.214264  0.154818
0.60500  3.209937  0.153474
0.60750  3.205695  0.152159
0.61000  3.201533  0.150872
0.61250  3.197449  0.149613
0.61500  3.193443  0.148379
0.61750  3.189509  0.147171
0.62000  3.185647  0.145987
0.62250  3.181854  0.144826
0.62500  3.178128  0.143688
0.62750  3.174466  0.142572
0.63000  3.170868  0.141478
0.63250  3.167330  0.140403
0.63500  3.163853  0.139348
0.63750  3.160433  0.138313
0.64000  3.157071  0.137297
0.64250  3.153763  0.136299
0.64500  3.150507  0.135318
0.64750  3.147305  0.134355
0.65000  3.144153  0.133408
0.65250  3.141051  0.132477
0.65500  3.137998  0.131563
0.65750  3.134991  0.130663
0.66000  3.132030  0.129778
0.66250  3.129115  0.128908
0.66500  3.126243  0.128052
0.66750  3.123414  0.127211
0.67000  3.120627  0.126382
0.67250  3.117880  0.125566
0.67500  3.115174  0.124764
0.67750  3.112507  0.123974
0.68000  3.109878  0.123196
0.68250  3.107287  0.122430
0.68500  3.104732  0.121675
0.68750  3.102214  0.120932
0.69000  3.099729  0.120199
0.69250  3.097279  0.119478
0.69500  3.094864  0.118767
0.69750  3.092481  0.118067
0.70000  3.090130  0.117376
0.70250  3.087811  0.116696
0.70500  3.085523  0.116025
0.70750  3.083264  0.115364
0.71000  3.081036  0.114711
0.71250  3.078837  0.114068
0.71500  3.076666  0.113433
0.71750  3.074524  0.112807
0.72000  3.072410  0.112190
0.72250  3.070322  0.111581
0.72500  3.068260  0.110979
0.72750  3.066225  0.110387
0.73000  3.064216  0.109802
0.73250  3.062231  0.109224
0.73500  3.060271  0.108654
0.73750  3.058336  0.108091
0.74000  3.056423  0.107536
0.74250  3.054535  0.106987
0.74500  3.052668  0.106445
0.74750  3.050825  0.105910
0.75000  3.049003  0.105382
0.75250  3.047204  0.104861
0.75500  3.045424  0.104345
0.75750  3.043667  0.103836
0.76000  3.041930  0.103333
0.76250  3.040214  0.102837
0.76500  3.038517  0.102345
0.76750  3.036839  0.101860
0.77000  3.035181  0.101381
0.77250  3.033542  0.100907
0.77500  3.031922  0.100438
0.77750  3.030319  0.099975
0.78000  3.028735  0.099518
0.78250  3.027168  0.099066
0.78500  3.025619  0.098619
0.78750  3.024086  0.098176
0.79000  3.022572  0.097739
0.79250  3.021073  0.097307
0.79500  3.019591  0.096879
0.79750  3.018125  0.096456
0.80000  3.016675  0.096038
0.80250  3.015240  0.095623
0.80500  3.013821  0.095215
0.80750  3.012416  0.094810
0.81000  3.011026  0.094409
0.81250  3.009652  0.094013
0.81500  3.008292  0.093621
0.81750  3.006946  0.093233
0.82000  3.005614  0.092848
0.82250  3.004295  0.092468
0.82500  3.002990  0.092092
0.82750  3.001699  0.091720
0.83000  3.000421  0.091351
0.83250  2.999156  0.090986
0.83500  2.997903  0.090625
0.83750  2.996664  0.090268
0.84000  2.995436  0.089914
0.84250  2.994220  0.089564
0.84500  2.993017  0.089217
0.84750  2.991827  0.088873
0.85000  2.990647  0.088533
0.85250  2.989479  0.088196
0.85500  2.988323  0.087863
0.85750  2.987178  0.087532
0.86000  2.986044  0.087205
0.86250  2.984921  0.086881
0.86500  2.983809  0.086559
0.86750  2.982708  0.086242
0.87000  2.981616  0.085926
0.87250  2.980535  0.085614
0.87500  2.979465  0.085304
0.87750  2.978404  0.084998
0.88000  2.977354  0.084695
0.88250  2.976313  0.084394
0.88500  2.975283  0.084096
0.88750  2.974261  0.083801
0.89000  2.973248  0.083507
0.89250  2.972246  0.083217
0.89500  2.971253  0.082930
0.89750  2.970268  0.082644
0.90000  2.969293  0.082362
0.90250  2.968326  0.082082
0.90500  2.967368  0.081805
0.90750  2.966418  0.081530
0.91000  2.965477  0.081256
0.91250  2.964545  0.080986
0.91500  2.963621  0.080718
0.91750  2.962706  0.080452
0.92000  2.961797  0.080188
0.92250  2.960897  0.079927
0.92500  2.960004  0.079668
0.92750  2.959121  0.079411
0.93000  2.958244  0.079156
0.93250  2.957375  0.078903
0.93500  2.956514  0.078653
0.93750  2.955659  0.078404
0.94000  2.954813  0.078157
0.94250  2.953973  0.077913
0.94500  2.953141  0.077670
0.94750  2.952316  0.077429
0.95000  2.951497  0.077190
0.95250  2.950685  0.076953
0.95500  2.949881  0.076719
0.95750  2.949082  0.076486
0.96000  2.948291  0.076255
0.96250  2.947506  0.076025
0.96500  2.946728  0.075797
0.96750  2.945956  0.075571
0.97000  2.945190  0.075348
0.97250  2.944431  0.075125
0.97500  2.943677  0.074905
0.97750  2.942930  0.074685
0.98000  2.942190  0.074469
0.98250  2.941454  0.074253
0.98500  2.940725  0.074039
0.98750  2.940002  0.073826
0.99000  2.939284  0.073616
0.99250  2.938573  0.073406
0.99500  2.937867  0.073198
0.99750  2.937166  0.072993
1.00000  2.936471  0.072788
