; From SOPRA S.A. http://www.sopra-sa.com/indices.htm
; Filename    Symbol               Range (nm)     Description
; AGAINP1     (Al.1Ga.9)0.5In0.5P 225     1000    Aluminum Gallium Indium Phosphide (10% Al)
; lambda/um       n         k
0.22500  1.526670  2.720966
0.22750  1.575226  2.777812
0.23000  1.629968  2.836510
0.23250  1.692032  2.896551
0.23500  1.762681  2.957106
0.23750  1.843243  3.016913
0.24000  1.935000  3.074153
0.24250  2.038994  3.126323
0.24500  2.155724  3.170182
0.24750  2.284737  3.201813
0.25000  2.424160  3.216912
0.25250  2.570333  3.211410
0.25500  2.717749  3.182363
0.25750  2.859558  3.128940
0.26000  2.988692  3.053046
0.26250  3.099097  2.959387
0.26500  3.187193  2.854407
0.26750  3.252119  2.745064
0.27000  3.295452  2.637537
0.27250  3.320375  2.536466
0.27500  3.330754  2.444755
0.27750  3.330431  2.363785
0.28000  3.322798  2.293816
0.28250  3.310628  2.234368
0.28500  3.296063  2.184564
0.28750  3.280686  2.143348
0.29000  3.265629  2.109637
0.29250  3.251669  2.082401
0.29500  3.239324  2.060706
0.29750  3.228919  2.043731
0.30000  3.220649  2.030767
0.30250  3.214615  2.021212
0.30500  3.210863  2.014558
0.30750  3.209401  2.010377
0.31000  3.210216  2.008314
0.31250  3.213294  2.008072
0.31500  3.218619  2.009402
0.31750  3.226187  2.012091
0.32000  3.236012  2.015962
0.32250  3.248129  2.020851
0.32500  3.262590  2.026591
0.32750  3.279425  2.033166
0.33000  3.298561  2.040875
0.33250  3.320650  2.048309
0.33500  3.345547  2.055948
0.33750  3.373438  2.063519
0.34000  3.404505  2.070712
0.34250  3.438928  2.077153
0.34500  3.476860  2.082381
0.34750  3.518408  2.085849
0.35000  3.563597  2.086922
0.35250  3.612331  2.084881
0.35500  3.664364  2.078956
0.35750  3.719257  2.068356
0.36000  3.776359  2.052330
0.36250  3.834802  2.030239
0.36500  3.893527  2.001616
0.36750  3.951325  1.966253
0.37000  4.006928  1.924232
0.37250  4.059097  1.875958
0.37500  4.106718  1.822126
0.37750  4.148893  1.763674
0.38000  4.184988  1.701708
0.38250  4.214668  1.637397
0.38500  4.237882  1.571885
0.38750  4.254818  1.506228
0.39000  4.265851  1.441385
0.39250  4.271506  1.378085
0.39500  4.272372  1.316913
0.39750  4.269072  1.258284
0.40000  4.262219  1.202471
0.40250  4.252399  1.149624
0.40500  4.240142  1.099799
0.40750  4.225925  1.052971
0.41000  4.210167  1.009068
0.41250  4.193227  0.967976
0.41500  4.175413  0.929558
0.41750  4.156978  0.893661
0.42000  4.138140  0.860130
0.42250  4.119075  0.828806
0.42500  4.099927  0.799532
0.42750  4.080814  0.772160
0.43000  4.061828  0.746550
0.43250  4.043073  0.722579
0.43500  4.024357  0.700004
0.43750  4.005620  0.678664
0.44000  3.987796  0.658880
0.44250  3.970301  0.640258
0.44500  3.953193  0.622725
0.44750  3.936483  0.606200
0.45000  3.920175  0.590603
0.45250  3.904273  0.575864
0.45500  3.888786  0.561926
0.45750  3.873707  0.548725
0.46000  3.859030  0.536208
0.46250  3.844751  0.524326
0.46500  3.830861  0.513033
0.46750  3.817355  0.502287
0.47000  3.804222  0.492050
0.47250  3.791455  0.482288
0.47500  3.779043  0.472968
0.47750  3.766978  0.464059
0.48000  3.755250  0.455536
0.48250  3.743847  0.447371
0.48500  3.732762  0.439542
0.48750  3.721985  0.432026
0.49000  3.711507  0.424805
0.49250  3.701319  0.417858
0.49500  3.691410  0.411169
0.49750  3.681774  0.404722
0.50000  3.672400  0.398501
0.50250  3.663282  0.392493
0.50500  3.654410  0.386684
0.50750  3.645778  0.381062
0.51000  3.637376  0.375615
0.51250  3.629199  0.370335
0.51500  3.621237  0.365208
0.51750  3.613485  0.360226
0.52000  3.605939  0.355382
0.52250  3.598588  0.350665
0.52500  3.591429  0.346070
0.52750  3.584454  0.341586
0.53000  3.577658  0.337208
0.53250  3.571036  0.332930
0.53500  3.564580  0.328743
0.53750  3.558287  0.324641
0.54000  3.552150  0.320621
0.54250  3.546166  0.316676
0.54500  3.540328  0.312801
0.54750  3.534633  0.308990
0.55000  3.529075  0.305237
0.55250  3.523649  0.301540
0.55500  3.518352  0.297893
0.55750  3.513179  0.294291
0.56000  3.508125  0.290730
0.56250  3.503186  0.287206
0.56500  3.498357  0.283715
0.56750  3.493635  0.280252
0.57000  3.489016  0.276813
0.57250  3.484493  0.273395
0.57500  3.480064  0.269994
0.57750  3.475723  0.266604
0.58000  3.471467  0.263223
0.58250  3.467290  0.259847
0.58500  3.463186  0.256470
0.58750  3.459152  0.253090
0.59000  3.455181  0.249702
0.59250  3.451267  0.246303
0.59500  3.447403  0.242888
0.59750  3.443582  0.239453
0.60000  3.439796  0.235994
0.60250  3.436035  0.232507
0.60500  3.432289  0.228990
0.60750  3.428546  0.225440
0.61000  3.424792  0.221855
0.61250  3.421013  0.218236
0.61500  3.417191  0.214586
0.61750  3.413306  0.210910
0.62000  3.409338  0.207222
0.62250  3.405267  0.203538
0.62500  3.401077  0.199884
0.62750  3.396755  0.196293
0.63000  3.392306  0.192804
0.63250  3.387739  0.189454
0.63500  3.383083  0.186275
0.63750  3.378371  0.183289
0.64000  3.373644  0.180503
0.64250  3.368932  0.177912
0.64500  3.364267  0.175503
0.64750  3.359668  0.173258
0.65000  3.355150  0.171159
0.65250  3.350722  0.169190
0.65500  3.346384  0.167332
0.65750  3.342140  0.165572
0.66000  3.337988  0.163898
0.66250  3.333926  0.162299
0.66500  3.329953  0.160768
0.66750  3.326064  0.159298
0.67000  3.322257  0.157881
0.67250  3.318528  0.156512
0.67500  3.314875  0.155189
0.67750  3.311295  0.153906
0.68000  3.307786  0.152660
0.68250  3.304343  0.151449
0.68500  3.300965  0.150270
0.68750  3.297650  0.149122
0.69000  3.294395  0.148001
0.69250  3.291197  0.146906
0.69500  3.288057  0.145837
0.69750  3.284970  0.144791
0.70000  3.281934  0.143767
0.70250  3.278951  0.142765
0.70500  3.276016  0.141783
0.70750  3.273129  0.140821
0.71000  3.270289  0.139877
0.71250  3.267492  0.138950
0.71500  3.264740  0.138041
0.71750  3.262031  0.137148
0.72000  3.259362  0.136272
0.72250  3.256735  0.135410
0.72500  3.254146  0.134563
0.72750  3.251595  0.133730
0.73000  3.249082  0.132911
0.73250  3.246605  0.132106
0.73500  3.244164  0.131313
0.73750  3.241756  0.130533
0.74000  3.239381  0.129765
0.74250  3.237041  0.129009
0.74500  3.234733  0.128264
0.74750  3.232455  0.127530
0.75000  3.230209  0.126807
0.75250  3.227993  0.126095
0.75500  3.225805  0.125393
0.75750  3.223647  0.124701
0.76000  3.221518  0.124019
0.76250  3.219415  0.123347
0.76500  3.217340  0.122683
0.76750  3.215291  0.122029
0.77000  3.213268  0.121383
0.77250  3.211270  0.120747
0.77500  3.209298  0.120118
0.77750  3.207350  0.119499
0.78000  3.205425  0.118887
0.78250  3.203524  0.118282
0.78500  3.201647  0.117686
0.78750  3.199792  0.117098
0.79000  3.197959  0.116517
0.79250  3.196149  0.115943
0.79500  3.194359  0.115376
0.79750  3.192590  0.114817
0.80000  3.190842  0.114263
0.80250  3.189115  0.113717
0.80500  3.187407  0.113177
0.80750  3.185719  0.112644
0.81000  3.184050  0.112117
0.81250  3.182400  0.111596
0.81500  3.180768  0.111081
0.81750  3.179156  0.110572
0.82000  3.177561  0.110070
0.82250  3.175983  0.109572
0.82500  3.174423  0.109080
0.82750  3.172880  0.108594
0.83000  3.171354  0.108113
0.83250  3.169844  0.107638
0.83500  3.168351  0.107168
0.83750  3.166874  0.106703
0.84000  3.165412  0.106243
0.84250  3.163965  0.105788
0.84500  3.162534  0.105338
0.84750  3.161119  0.104893
0.85000  3.159718  0.104451
0.85250  3.158330  0.104016
0.85500  3.156958  0.103584
0.85750  3.155600  0.103158
0.86000  3.154257  0.102735
0.86250  3.152926  0.102316
0.86500  3.151609  0.101902
0.86750  3.150305  0.101493
0.87000  3.149014  0.101088
0.87250  3.147737  0.100685
0.87500  3.146472  0.100288
0.87750  3.145220  0.099895
0.88000  3.143980  0.099505
0.88250  3.142751  0.099119
0.88500  3.141536  0.098737
0.88750  3.140332  0.098359
0.89000  3.139140  0.097984
0.89250  3.137959  0.097612
0.89500  3.136789  0.097244
0.89750  3.135630  0.096881
0.90000  3.134483  0.096519
0.90250  3.133347  0.096162
0.90500  3.132221  0.095808
0.90750  3.131106  0.095457
0.91000  3.130001  0.095109
0.91250  3.128906  0.094765
0.91500  3.127822  0.094424
0.91750  3.126747  0.094086
0.92000  3.125683  0.093750
0.92250  3.124629  0.093418
0.92500  3.123583  0.093089
0.92750  3.122548  0.092763
0.93000  3.121522  0.092440
0.93250  3.120505  0.092119
0.93500  3.119497  0.091801
0.93750  3.118498  0.091486
0.94000  3.117509  0.091174
0.94250  3.116527  0.090865
0.94500  3.115556  0.090558
0.94750  3.114592  0.090253
0.95000  3.113636  0.089952
0.95250  3.112689  0.089653
0.95500  3.111750  0.089356
0.95750  3.110820  0.089062
0.96000  3.109897  0.088770
0.96250  3.108982  0.088481
0.96500  3.108076  0.088194
0.96750  3.107177  0.087910
0.97000  3.106284  0.087628
0.97250  3.105401  0.087348
0.97500  3.104524  0.087070
0.97750  3.103655  0.086795
0.98000  3.102793  0.086522
0.98250  3.101939  0.086250
0.98500  3.101091  0.085982
0.98750  3.100251  0.085715
0.99000  3.099418  0.085450
0.99250  3.098591  0.085188
0.99500  3.097771  0.084928
0.99750  3.096958  0.084669
1.00000  3.096152  0.084413
