; From SOPRA S.A. http://www.sopra-sa.com/indices.htm
; Filename    Symbol               Range (nm)     Description
; AGAINP6     (Al.6Ga.4)0.5In0.5P 225     1000    Aluminum Gallium Indium Phosphide (60% Al)
; lambda/um       n         k
0.22500  1.573654  2.611591
0.22750  1.613422  2.664156
0.23000  1.658284  2.719758
0.23250  1.709480  2.778285
0.23500  1.768507  2.839363
0.23750  1.837127  2.902203
0.24000  1.917313  2.965407
0.24250  2.011102  3.026714
0.24500  2.120284  3.082734
0.24750  2.245840  3.128757
0.25000  2.387115  3.158837
0.25250  2.540851  3.166428
0.25500  2.700498  3.145784
0.25750  2.856492  3.093969
0.26000  2.998024  3.012609
0.26250  3.115664  2.908373
0.26500  3.204223  2.791159
0.26750  3.263385  2.671405
0.27000  3.296772  2.557618
0.27250  3.310048  2.455255
0.27500  3.309188  2.366862
0.27750  3.299428  2.292838
0.28000  3.284873  2.232294
0.28250  3.268497  2.183725
0.28500  3.252342  2.145440
0.28750  3.237735  2.115807
0.29000  3.225498  2.093364
0.29250  3.216115  2.076854
0.29500  3.209849  2.065229
0.29750  3.206827  2.057624
0.30000  3.207104  2.053329
0.30250  3.210699  2.051759
0.30500  3.217624  2.052428
0.30750  3.227913  2.054910
0.31000  3.241570  2.058944
0.31250  3.258491  2.064698
0.31500  3.279288  2.070538
0.31750  3.303818  2.076793
0.32000  3.332251  2.083029
0.32250  3.364761  2.088764
0.32500  3.401470  2.093424
0.32750  3.442485  2.096343
0.33000  3.487805  2.096752
0.33250  3.537292  2.093785
0.33500  3.590618  2.086514
0.33750  3.647217  2.074001
0.34000  3.706263  2.055361
0.34250  3.766667  2.029869
0.34500  3.827107  1.997051
0.34750  3.886116  1.956762
0.35000  3.942188  1.909243
0.35250  3.993904  1.855125
0.35500  4.040063  1.795383
0.35750  4.079771  1.731242
0.36000  4.112496  1.664063
0.36250  4.138065  1.595220
0.36500  4.156631  1.525998
0.36750  4.168605  1.457521
0.37000  4.174571  1.390701
0.37250  4.175223  1.326239
0.37500  4.171292  1.264631
0.37750  4.163502  1.206185
0.38000  4.152531  1.151069
0.38250  4.138996  1.099326
0.38500  4.123443  1.050908
0.38750  4.106340  1.005705
0.39000  4.088098  0.963598
0.39250  4.069047  0.924395
0.39500  4.049467  0.887915
0.39750  4.029583  0.853969
0.40000  4.009582  0.822369
0.40250  3.989608  0.792935
0.40500  3.969806  0.765507
0.40750  3.950047  0.739819
0.41000  3.930217  0.715633
0.41250  3.911347  0.693287
0.41500  3.892845  0.672339
0.41750  3.874777  0.652690
0.42000  3.857161  0.634231
0.42250  3.840010  0.616864
0.42500  3.823334  0.600503
0.42750  3.807132  0.585063
0.43000  3.791402  0.570469
0.43250  3.776142  0.556656
0.43500  3.761345  0.543560
0.43750  3.747000  0.531124
0.44000  3.733101  0.519297
0.44250  3.719635  0.508030
0.44500  3.706592  0.497281
0.44750  3.693960  0.487010
0.45000  3.681726  0.477178
0.45250  3.669875  0.467751
0.45500  3.658404  0.458703
0.45750  3.647296  0.450001
0.46000  3.636538  0.441620
0.46250  3.626120  0.433534
0.46500  3.616029  0.425720
0.46750  3.606255  0.418157
0.47000  3.596784  0.410823
0.47250  3.587609  0.403701
0.47500  3.578718  0.396774
0.47750  3.570099  0.390024
0.48000  3.561744  0.383435
0.48250  3.553642  0.376991
0.48500  3.545783  0.370679
0.48750  3.538159  0.364485
0.49000  3.530758  0.358396
0.49250  3.523573  0.352398
0.49500  3.516593  0.346478
0.49750  3.509808  0.340625
0.50000  3.503210  0.334825
0.50250  3.496790  0.329066
0.50500  3.490535  0.323337
0.50750  3.484437  0.317623
0.51000  3.478482  0.311911
0.51250  3.472661  0.306188
0.51500  3.466957  0.300438
0.51750  3.461356  0.294647
0.52000  3.455842  0.288800
0.52250  3.450392  0.282879
0.52500  3.444979  0.276866
0.52750  3.439572  0.270741
0.53000  3.434127  0.264486
0.53250  3.428591  0.258088
0.53500  3.422889  0.251538
0.53750  3.416928  0.244852
0.54000  3.410592  0.238085
0.54250  3.403769  0.231359
0.54500  3.396401  0.224879
0.54750  3.388558  0.218883
0.55000  3.380439  0.213537
0.55250  3.372280  0.208864
0.55500  3.364260  0.204782
0.55750  3.356475  0.201173
0.56000  3.348958  0.197931
0.56250  3.341712  0.194974
0.56500  3.334725  0.192240
0.56750  3.327982  0.189686
0.57000  3.321464  0.187279
0.57250  3.315154  0.184997
0.57500  3.309037  0.182821
0.57750  3.303098  0.180737
0.58000  3.297327  0.178734
0.58250  3.291713  0.176804
0.58500  3.286245  0.174939
0.58750  3.280916  0.173136
0.59000  3.275717  0.171386
0.59250  3.270643  0.169688
0.59500  3.265685  0.168037
0.59750  3.260840  0.166431
0.60000  3.256101  0.164866
0.60250  3.251464  0.163341
0.60500  3.246925  0.161853
0.60750  3.242481  0.160401
0.61000  3.238125  0.158982
0.61250  3.233857  0.157596
0.61500  3.229672  0.156241
0.61750  3.225567  0.154915
0.62000  3.221541  0.153617
0.62250  3.217589  0.152347
0.62500  3.213710  0.151103
0.62750  3.209901  0.149884
0.63000  3.206160  0.148690
0.63250  3.202485  0.147518
0.63500  3.198874  0.146371
0.63750  3.195325  0.145244
0.64000  3.191837  0.144139
0.64250  3.188407  0.143054
0.64500  3.185034  0.141990
0.64750  3.181715  0.140944
0.65000  3.178452  0.139917
0.65250  3.175242  0.138909
0.65500  3.172083  0.137918
0.65750  3.168973  0.136944
0.66000  3.165911  0.135987
0.66250  3.162898  0.135047
0.66500  3.159930  0.134122
0.66750  3.157009  0.133212
0.67000  3.154131  0.132318
0.67250  3.151295  0.131438
0.67500  3.148502  0.130572
0.67750  3.145750  0.129720
0.68000  3.143039  0.128881
0.68250  3.140366  0.128056
0.68500  3.137733  0.127244
0.68750  3.135137  0.126443
0.69000  3.132576  0.125655
0.69250  3.130052  0.124879
0.69500  3.127564  0.124115
0.69750  3.125109  0.123362
0.70000  3.122688  0.122620
0.70250  3.120301  0.121889
0.70500  3.117946  0.121168
0.70750  3.115623  0.120458
0.71000  3.113330  0.119757
0.71250  3.111067  0.119068
0.71500  3.108835  0.118387
0.71750  3.106631  0.117716
0.72000  3.104457  0.117054
0.72250  3.102311  0.116402
0.72500  3.100192  0.115758
0.72750  3.098100  0.115122
0.73000  3.096035  0.114496
0.73250  3.093996  0.113877
0.73500  3.091983  0.113267
0.73750  3.089994  0.112665
0.74000  3.088030  0.112070
0.74250  3.086091  0.111484
0.74500  3.084175  0.110904
0.74750  3.082282  0.110333
0.75000  3.080412  0.109768
0.75250  3.078566  0.109211
0.75500  3.076740  0.108660
0.75750  3.074936  0.108116
0.76000  3.073155  0.107579
0.76250  3.071393  0.107049
0.76500  3.069653  0.106524
0.76750  3.067933  0.106007
0.77000  3.066232  0.105495
0.77250  3.064552  0.104990
0.77500  3.062890  0.104490
0.77750  3.061248  0.103996
0.78000  3.059623  0.103508
0.78250  3.058017  0.103026
0.78500  3.056430  0.102549
0.78750  3.054860  0.102078
0.79000  3.053307  0.101612
0.79250  3.051773  0.101152
0.79500  3.050255  0.100696
0.79750  3.048753  0.100246
0.80000  3.047266  0.099800
0.80250  3.045798  0.099360
0.80500  3.044344  0.098924
0.80750  3.042906  0.098493
0.81000  3.041483  0.098067
0.81250  3.040076  0.097645
0.81500  3.038684  0.097228
0.81750  3.037306  0.096815
0.82000  3.035943  0.096407
0.82250  3.034593  0.096003
0.82500  3.033258  0.095603
0.82750  3.031937  0.095207
0.83000  3.030629  0.094815
0.83250  3.029335  0.094428
0.83500  3.028054  0.094044
0.83750  3.026785  0.093664
0.84000  3.025530  0.093289
0.84250  3.024287  0.092916
0.84500  3.023057  0.092548
0.84750  3.021839  0.092183
0.85000  3.020633  0.091822
0.85250  3.019439  0.091464
0.85500  3.018257  0.091110
0.85750  3.017086  0.090760
0.86000  3.015927  0.090412
0.86250  3.014780  0.090068
0.86500  3.013643  0.089728
0.86750  3.012517  0.089390
0.87000  3.011402  0.089056
0.87250  3.010298  0.088725
0.87500  3.009204  0.088397
0.87750  3.008121  0.088072
0.88000  3.007048  0.087750
0.88250  3.005985  0.087431
0.88500  3.004931  0.087115
0.88750  3.003888  0.086802
0.89000  3.002854  0.086492
0.89250  3.001831  0.086184
0.89500  3.000816  0.085880
0.89750  2.999811  0.085578
0.90000  2.998815  0.085278
0.90250  2.997828  0.084982
0.90500  2.996850  0.084688
0.90750  2.995881  0.084396
0.91000  2.994920  0.084107
0.91250  2.993968  0.083821
0.91500  2.993025  0.083537
0.91750  2.992091  0.083256
0.92000  2.991164  0.082977
0.92250  2.990245  0.082700
0.92500  2.989335  0.082426
0.92750  2.988433  0.082154
0.93000  2.987538  0.081884
0.93250  2.986651  0.081617
0.93500  2.985773  0.081352
0.93750  2.984902  0.081089
0.94000  2.984037  0.080828
0.94250  2.983181  0.080569
0.94500  2.982332  0.080313
0.94750  2.981491  0.080058
0.95000  2.980656  0.079806
0.95250  2.979829  0.079555
0.95500  2.979007  0.079307
0.95750  2.978193  0.079060
0.96000  2.977387  0.078817
0.96250  2.976587  0.078574
0.96500  2.975792  0.078333
0.96750  2.975006  0.078095
0.97000  2.974226  0.077858
0.97250  2.973451  0.077623
0.97500  2.972684  0.077389
0.97750  2.971922  0.077159
0.98000  2.971167  0.076929
0.98250  2.970418  0.076701
0.98500  2.969675  0.076475
0.98750  2.968937  0.076251
0.99000  2.968207  0.076028
0.99250  2.967482  0.075807
0.99500  2.966763  0.075588
0.99750  2.966048  0.075371
1.00000  2.965341  0.075155
