; From SOPRA S.A. http://www.sopra-sa.com/indices.htm
; Filename    Symbol               Range (nm)     Description
; AGAINP0     (Al0Ga1)0.5In0.5P   225     1000    Aluminum Gallium Indium Phosphide (0% Al)
; lambda/um       n         k
0.22500  1.523143  2.823144
0.22750  1.577333  2.885352
0.23000  1.638632  2.949227
0.23250  1.708263  3.014096
0.23500  1.787558  3.078915
0.23750  1.877872  3.142153
0.24000  1.980443  3.201662
0.24250  2.096169  3.254580
0.24500  2.225249  3.297297
0.24750  2.366771  3.325591
0.25000  2.518241  3.335017
0.25250  2.675292  3.321612
0.25500  2.831759  3.282850
0.25750  2.980359  3.218573
0.26000  3.113940  3.131467
0.26250  3.226689  3.026924
0.26500  3.315480  2.911826
0.26750  3.379933  2.793294
0.27000  3.422014  2.677480
0.27250  3.445152  2.568906
0.27500  3.453356  2.470357
0.27750  3.450537  2.383119
0.28000  3.440126  2.307390
0.28250  3.424927  2.242659
0.28500  3.407113  2.188024
0.28750  3.388303  2.142414
0.29000  3.369659  2.104727
0.29250  3.351992  2.073911
0.29500  3.335845  2.049014
0.29750  3.321566  2.029188
0.30000  3.309366  2.013700
0.30250  3.299354  2.001924
0.30500  3.291577  1.993328
0.30750  3.286040  1.987468
0.31000  3.282722  1.983974
0.31250  3.281591  1.982540
0.31500  3.282613  1.982913
0.31750  3.285761  1.984890
0.32000  3.291021  1.988302
0.32250  3.298399  1.993019
0.32500  3.307914  1.998925
0.32750  3.319625  2.005929
0.33000  3.333623  2.013933
0.33250  3.349968  2.022989
0.33500  3.368622  2.033437
0.33750  3.390383  2.043971
0.34000  3.415164  2.055105
0.34250  3.443275  2.066606
0.34500  3.475053  2.078184
0.34750  3.510859  2.089447
0.35000  3.551053  2.099871
0.35250  3.595960  2.108774
0.35500  3.645823  2.115305
0.35750  3.700727  2.118433
0.36000  3.760525  2.116979
0.36250  3.824760  2.109666
0.36500  3.892596  2.095220
0.36750  3.962783  2.072504
0.37000  4.033687  2.040670
0.37250  4.103381  1.999320
0.37500  4.169808  1.948606
0.37750  4.230990  1.889274
0.38000  4.285229  1.822600
0.38250  4.331277  1.750252
0.38500  4.368425  1.674095
0.38750  4.396500  1.596001
0.39000  4.415775  1.517746
0.39250  4.426914  1.440766
0.39500  4.430790  1.366210
0.39750  4.428392  1.294908
0.40000  4.420723  1.227394
0.40250  4.408744  1.163965
0.40500  4.393329  1.104725
0.40750  4.375243  1.049636
0.41000  4.355144  0.998564
0.41250  4.333581  0.951312
0.41500  4.311010  0.907646
0.41750  4.287797  0.867315
0.42000  4.264240  0.830063
0.42250  4.240570  0.795641
0.42500  4.216974  0.763812
0.42750  4.193593  0.734350
0.43000  4.170535  0.707049
0.43250  4.147882  0.681716
0.43500  4.125721  0.658190
0.43750  4.103840  0.636204
0.44000  4.082174  0.615575
0.44250  4.061630  0.596553
0.44500  4.041610  0.578756
0.44750  4.022156  0.562095
0.45000  4.003263  0.546471
0.45250  3.984924  0.531797
0.45500  3.967138  0.518001
0.45750  3.949890  0.505008
0.46000  3.933165  0.492754
0.46250  3.916950  0.481180
0.46500  3.901231  0.470233
0.46750  3.885992  0.459866
0.47000  3.871218  0.450034
0.47250  3.856894  0.440699
0.47500  3.843005  0.431824
0.47750  3.829535  0.423375
0.48000  3.816471  0.415323
0.48250  3.803797  0.407639
0.48500  3.791500  0.400298
0.48750  3.779567  0.393278
0.49000  3.767985  0.386556
0.49250  3.756741  0.380113
0.49500  3.745822  0.373929
0.49750  3.735217  0.367989
0.50000  3.724917  0.362277
0.50250  3.714908  0.356779
0.50500  3.705181  0.351481
0.50750  3.695726  0.346369
0.51000  3.686534  0.341433
0.51250  3.677595  0.336663
0.51500  3.668900  0.332048
0.51750  3.660441  0.327577
0.52000  3.652212  0.323244
0.52250  3.644203  0.319040
0.52500  3.636407  0.314956
0.52750  3.628817  0.310986
0.53000  3.621426  0.307123
0.53250  3.614228  0.303360
0.53500  3.607215  0.299691
0.53750  3.600383  0.296110
0.54000  3.593725  0.292612
0.54250  3.587235  0.289192
0.54500  3.580908  0.285845
0.54750  3.574740  0.282567
0.55000  3.568725  0.279352
0.55250  3.562856  0.276197
0.55500  3.557130  0.273097
0.55750  3.551544  0.270049
0.56000  3.546091  0.267049
0.56250  3.540767  0.264093
0.56500  3.535569  0.261178
0.56750  3.530493  0.258301
0.57000  3.525534  0.255459
0.57250  3.520689  0.252647
0.57500  3.515952  0.249864
0.57750  3.511321  0.247105
0.58000  3.506793  0.244369
0.58250  3.502363  0.241653
0.58500  3.498028  0.238952
0.58750  3.493784  0.236265
0.59000  3.489628  0.233590
0.59250  3.485555  0.230923
0.59500  3.481563  0.228261
0.59750  3.477647  0.225602
0.60000  3.473804  0.222943
0.60250  3.470030  0.220282
0.60500  3.466320  0.217615
0.60750  3.462670  0.214940
0.61000  3.459076  0.212253
0.61250  3.455534  0.209552
0.61500  3.452036  0.206836
0.61750  3.448578  0.204100
0.62000  3.445155  0.201342
0.62250  3.441758  0.198560
0.62500  3.438381  0.195752
0.62750  3.435015  0.192916
0.63000  3.431651  0.190052
0.63250  3.428278  0.187159
0.63500  3.424885  0.184238
0.63750  3.421459  0.181292
0.64000  3.417987  0.178329
0.64250  3.414453  0.175358
0.64500  3.410846  0.172391
0.64750  3.407155  0.169445
0.65000  3.403372  0.166546
0.65250  3.399498  0.163716
0.65500  3.395539  0.160982
0.65750  3.391511  0.158367
0.66000  3.387434  0.155887
0.66250  3.383334  0.153552
0.66500  3.379234  0.151364
0.66750  3.375157  0.149317
0.67000  3.371120  0.147403
0.67250  3.367136  0.145610
0.67500  3.363214  0.143927
0.67750  3.359361  0.142341
0.68000  3.355579  0.140841
0.68250  3.351869  0.139418
0.68500  3.348231  0.138063
0.68750  3.344666  0.136768
0.69000  3.341171  0.135528
0.69250  3.337743  0.134336
0.69500  3.334383  0.133188
0.69750  3.331087  0.132080
0.70000  3.327853  0.131009
0.70250  3.324679  0.129971
0.70500  3.321563  0.128964
0.70750  3.318504  0.127985
0.71000  3.315497  0.127033
0.71250  3.312544  0.126105
0.71500  3.309642  0.125200
0.71750  3.306789  0.124317
0.72000  3.303983  0.123454
0.72250  3.301224  0.122610
0.72500  3.298510  0.121785
0.72750  3.295838  0.120976
0.73000  3.293208  0.120184
0.73250  3.290620  0.119408
0.73500  3.288072  0.118647
0.73750  3.285562  0.117900
0.74000  3.283089  0.117167
0.74250  3.280653  0.116447
0.74500  3.278253  0.115739
0.74750  3.275887  0.115044
0.75000  3.273555  0.114360
0.75250  3.271256  0.113689
0.75500  3.268990  0.113027
0.75750  3.266755  0.112376
0.76000  3.264551  0.111736
0.76250  3.262377  0.111106
0.76500  3.260232  0.110484
0.76750  3.258116  0.109873
0.77000  3.256027  0.109271
0.77250  3.253966  0.108676
0.77500  3.251932  0.108091
0.77750  3.249923  0.107514
0.78000  3.247942  0.106946
0.78250  3.245985  0.106384
0.78500  3.244053  0.105831
0.78750  3.242145  0.105286
0.79000  3.240261  0.104748
0.79250  3.238400  0.104217
0.79500  3.236562  0.103692
0.79750  3.234746  0.103175
0.80000  3.232952  0.102664
0.80250  3.231179  0.102160
0.80500  3.229428  0.101662
0.80750  3.227697  0.101171
0.81000  3.225987  0.100685
0.81250  3.224296  0.100206
0.81500  3.222625  0.099732
0.81750  3.220973  0.099263
0.82000  3.219341  0.098801
0.82250  3.217727  0.098344
0.82500  3.216131  0.097892
0.82750  3.214553  0.097446
0.83000  3.212993  0.097005
0.83250  3.211450  0.096568
0.83500  3.209924  0.096137
0.83750  3.208415  0.095711
0.84000  3.206921  0.095289
0.84250  3.205445  0.094872
0.84500  3.203984  0.094460
0.84750  3.202539  0.094052
0.85000  3.201110  0.093649
0.85250  3.199696  0.093250
0.85500  3.198296  0.092855
0.85750  3.196911  0.092465
0.86000  3.195541  0.092078
0.86250  3.194185  0.091696
0.86500  3.192843  0.091317
0.86750  3.191515  0.090943
0.87000  3.190200  0.090573
0.87250  3.188900  0.090206
0.87500  3.187612  0.089843
0.87750  3.186337  0.089483
0.88000  3.185075  0.089128
0.88250  3.183826  0.088775
0.88500  3.182589  0.088426
0.88750  3.181365  0.088081
0.89000  3.180152  0.087739
0.89250  3.178951  0.087401
0.89500  3.177762  0.087065
0.89750  3.176584  0.086733
0.90000  3.175417  0.086404
0.90250  3.174263  0.086078
0.90500  3.173119  0.085755
0.90750  3.171986  0.085435
0.91000  3.170863  0.085118
0.91250  3.169752  0.084805
0.91500  3.168650  0.084494
0.91750  3.167560  0.084186
0.92000  3.166479  0.083880
0.92250  3.165409  0.083578
0.92500  3.164349  0.083278
0.92750  3.163298  0.082981
0.93000  3.162257  0.082686
0.93250  3.161225  0.082395
0.93500  3.160203  0.082105
0.93750  3.159190  0.081819
0.94000  3.158186  0.081535
0.94250  3.157192  0.081253
0.94500  3.156207  0.080974
0.94750  3.155229  0.080697
0.95000  3.154261  0.080423
0.95250  3.153301  0.080150
0.95500  3.152350  0.079881
0.95750  3.151407  0.079613
0.96000  3.150472  0.079348
0.96250  3.149546  0.079084
0.96500  3.148627  0.078823
0.96750  3.147716  0.078565
0.97000  3.146813  0.078308
0.97250  3.145918  0.078053
0.97500  3.145031  0.077801
0.97750  3.144151  0.077550
0.98000  3.143279  0.077301
0.98250  3.142414  0.077055
0.98500  3.141557  0.076811
0.98750  3.140706  0.076569
0.99000  3.139864  0.076328
0.99250  3.139027  0.076089
0.99500  3.138197  0.075853
0.99750  3.137374  0.075618
1.00000  3.136559  0.075384
