; From SOPRA S.A. http://www.sopra-sa.com/indices.htm
; Filename    Symbol               Range (nm)     Description
; AL          Al                  183     2479    Aluminum
; lambda/um       n         k
0.18368  0.102000  2.070000
0.18505  0.104385  2.085002
0.18644  0.106203  2.103344
0.18786  0.107628  2.124184
0.18929  0.108835  2.146683
0.19075  0.110000  2.170000
0.19223  0.111298  2.193295
0.19373  0.112904  2.215727
0.19525  0.114761  2.237511
0.19680  0.116812  2.258863
0.19838  0.119000  2.280000
0.19998  0.121268  2.301136
0.20160  0.123559  2.322489
0.20325  0.125816  2.344273
0.20493  0.127982  2.366705
0.20664  0.130000  2.390000
0.20838  0.131813  2.414375
0.21014  0.134000  2.440000
0.21194  0.136438  2.465625
0.21377  0.139000  2.490000
0.21563  0.141500  2.509375
0.21752  0.144000  2.530000
0.21944  0.146438  2.559375
0.22140  0.149000  2.590000
0.22340  0.151875  2.615000
0.22543  0.155000  2.640000
0.22750  0.158500  2.669375
0.22960  0.162000  2.700000
0.23175  0.164938  2.730000
0.23393  0.168000  2.760000
0.23616  0.171938  2.790000
0.23843  0.176000  2.820000
0.24075  0.179563  2.850000
0.24311  0.183000  2.880000
0.24552  0.186500  2.909375
0.24797  0.190000  2.940000
0.25048  0.193438  2.975000
0.25303  0.197000  3.010000
0.25564  0.200938  3.039375
0.25830  0.205000  3.070000
0.26102  0.208875  3.109375
0.26380  0.213000  3.150000
0.26663  0.217875  3.185000
0.26953  0.223000  3.220000
0.27249  0.227938  3.259375
0.27552  0.233000  3.300000
0.27862  0.238438  3.339375
0.28178  0.244000  3.380000
0.28502  0.249438  3.425000
0.28834  0.255000  3.470000
0.29173  0.260875  3.510000
0.29520  0.267000  3.550000
0.29876  0.273375  3.593750
0.30240  0.280000  3.640000
0.30614  0.286813  3.689375
0.30996  0.294000  3.740000
0.31389  0.301875  3.789375
0.31791  0.310000  3.840000
0.32204  0.317875  3.894375
0.32628  0.326000  3.950000
0.33063  0.334750  4.005000
0.33510  0.344000  4.060000
0.33969  0.353813  4.113750
0.34440  0.364000  4.170000
0.34925  0.374375  4.233750
0.35424  0.385000  4.300000
0.35938  0.395750  4.365000
0.36466  0.407000  4.430000
0.37011  0.419125  4.493750
0.37571  0.432000  4.560000
0.38149  0.445688  4.633750
0.38745  0.460000  4.710000
0.39360  0.474688  4.784375
0.39995  0.490000  4.860000
0.40651  0.506188  4.938125
0.41328  0.523000  5.020000
0.42029  0.540063  5.108750
0.42754  0.558000  5.200000
0.43504  0.577313  5.290000
0.44280  0.598000  5.380000
0.45086  0.620313  5.480000
0.45920  0.644000  5.580000
0.46787  0.668625  5.690000
0.47687  0.695000  5.800000
0.48622  0.723750  5.915000
0.49594  0.755000  6.030000
0.50606  0.789000  6.150000
0.51660  0.826000  6.280000
0.52760  0.867000  6.420000
0.53907  0.912000  6.550000
0.55105  0.963000  6.700000
0.56357  1.020000  6.850000
0.57668  1.080000  7.000000
0.59041  1.150000  7.150000
0.60481  1.220000  7.310000
0.61993  1.300000  7.480000
0.63582  1.390000  7.650000
0.65255  1.490000  7.820000
0.67019  1.600000  8.010000
0.68881  1.740000  8.210000
0.70849  1.910000  8.390000
0.72932  2.140000  8.570000
0.75143  2.410000  8.620000
0.77491  2.630000  8.600000
0.79990  2.800000  8.450000
0.82657  2.740000  8.310000
0.85507  2.580000  8.210000
0.88561  2.240000  8.210000
0.91841  1.860000  8.440000
0.95373  1.470000  8.950000
0.99188  1.370000  9.490000
1.03321  1.260000  10.000000
1.07813  1.210000  10.600000
1.12714  1.200000  11.200000
1.18081  1.210000  11.800000
1.23985  1.210000  12.500000
1.30511  1.230000  13.200000
1.37761  1.260000  14.000000
1.45865  1.330000  14.900000
1.54981  1.440000  16.000000
1.65314  1.590000  17.100000
1.77122  1.770000  18.300000
1.90746  1.990000  19.800000
2.06642  2.270000  21.400000
2.25428  2.620000  23.300000
2.47970  3.070000  25.600000
