; From SOPRA S.A. http://www.sopra-sa.com/indices.htm
; Filename    Symbol               Range (nm)     Description
; ALAS305T    AlAs                275      987    Aluminum Arsenide (Temp: 305 C)
; lambda/um       n         k
0.27583  4.345000  2.894300
0.27675  4.355900  2.835600
0.27768  4.360300  2.780000
0.27862  4.358600  2.726500
0.27956  4.350600  2.675400
0.28051  4.339700  2.626400
0.28146  4.328800  2.581100
0.28243  4.319900  2.540300
0.28339  4.309200  2.502600
0.28437  4.294100  2.469500
0.28535  4.279800  2.441600
0.28634  4.268100  2.416800
0.28734  4.258200  2.394100
0.28834  4.250900  2.372900
0.28935  4.246600  2.352300
0.29036  4.243000  2.333500
0.29139  4.240000  2.318400
0.29242  4.238500  2.304700
0.29346  4.239100  2.291000
0.29450  4.243000  2.279300
0.29555  4.249300  2.270500
0.29662  4.256500  2.263700
0.29768  4.265600  2.257600
0.29876  4.273400  2.253100
0.29984  4.279900  2.250000
0.30093  4.290600  2.245600
0.30203  4.305300  2.240300
0.30314  4.322100  2.236300
0.30426  4.341400  2.231200
0.30538  4.363000  2.222800
0.30651  4.387700  2.215000
0.30766  4.414800  2.208500
0.30880  4.445600  2.199600
0.30996  4.479100  2.187800
0.31113  4.513200  2.175000
0.31231  4.549300  2.160600
0.31349  4.586200  2.141900
0.31468  4.622200  2.116400
0.31589  4.659100  2.085300
0.31710  4.697300  2.051600
0.31832  4.735100  2.014000
0.31955  4.769400  1.973200
0.32079  4.801900  1.932300
0.32204  4.837500  1.889900
0.32330  4.877300  1.842800
0.32457  4.917800  1.791200
0.32585  4.951600  1.736300
0.32714  4.975700  1.677700
0.32844  4.989200  1.617900
0.32975  4.992800  1.556200
0.33107  4.989300  1.488700
0.33240  4.979400  1.418900
0.33374  4.967300  1.349900
0.33510  4.957400  1.280200
0.33646  4.950000  1.210400
0.33783  4.941500  1.143200
0.33922  4.925900  1.079800
0.34062  4.903800  1.020500
0.34203  4.877600  0.965000
0.34345  4.846800  0.912740
0.34488  4.813400  0.865120
0.34633  4.780100  0.823010
0.34778  4.747800  0.784280
0.34925  4.716200  0.747690
0.35074  4.685700  0.713640
0.35223  4.655600  0.682180
0.35374  4.625000  0.653510
0.35526  4.594600  0.627100
0.35679  4.565100  0.601620
0.35834  4.536100  0.577780
0.35990  4.507400  0.556600
0.36147  4.479600  0.536820
0.36306  4.452800  0.517410
0.36466  4.427100  0.498010
0.36628  4.402800  0.478240
0.36791  4.379500  0.458970
0.36955  4.356700  0.441200
0.37121  4.334100  0.424150
0.37289  4.312300  0.406870
0.37458  4.290900  0.390390
0.37628  4.269200  0.375520
0.37800  4.247900  0.361930
0.37974  4.227500  0.348850
0.38149  4.207900  0.335230
0.38326  4.188600  0.321580
0.38505  4.170500  0.308400
0.38685  4.152800  0.294940
0.38867  4.133000  0.281450
0.39050  4.113000  0.268860
0.39236  4.094800  0.257150
0.39423  4.077900  0.246100
0.39612  4.060200  0.235580
0.39803  4.042300  0.224840
0.39995  4.025800  0.214230
0.40190  4.009000  0.204600
0.40386  3.992800  0.195190
0.40584  3.978300  0.184690
0.40785  3.962900  0.172690
0.40987  3.946900  0.160100
0.41191  3.931500  0.148100
0.41397  3.914100  0.136480
0.41606  3.895100  0.125160
0.41816  3.876200  0.115330
0.42029  3.857000  0.107050
0.42244  3.838500  0.099159
0.42461  3.821000  0.091348
0.42680  3.803700  0.083874
0.42901  3.786400  0.076752
0.43125  3.769800  0.069916
0.43351  3.753800  0.063755
0.43580  3.737100  0.058816
0.43811  3.719800  0.054837
0.44044  3.702700  0.051352
0.44280  3.688300  0.047903
0.44519  3.675400  0.043888
0.44760  3.661300  0.039082
0.45004  3.646900  0.033643
0.45250  3.632400  0.028316
0.45499  3.618500  0.023961
0.45751  3.605900  0.020025
0.46006  3.592900  0.015507
0.46263  3.578800  0.010718
0.46524  3.563100  0.005679
0.46787  3.545200  0.001493
0.47053  3.527800  0.000000
0.47323  3.512700  0.000000
0.47595  3.499700  0.000000
0.47871  3.488100  0.000000
0.48150  3.476400  0.000000
0.48432  3.464500  0.000000
0.48717  3.452200  0.000000
0.49006  3.439500  0.000000
0.49298  3.428600  0.000000
0.49594  3.418800  0.000000
0.49893  3.407900  0.000000
0.50196  3.397900  0.000000
0.50503  3.389500  0.000000
0.50814  3.380000  0.000000
0.51128  3.369200  0.000000
0.51446  3.360100  0.000000
0.51768  3.351900  0.000000
0.52095  3.342500  0.000000
0.52425  3.333200  0.000000
0.52760  3.325600  0.000000
0.53099  3.318800  0.000000
0.53442  3.310800  0.000000
0.53790  3.302200  0.000000
0.54142  3.294500  0.000000
0.54499  3.286200  0.000000
0.54861  3.278000  0.000000
0.55227  3.270700  0.000000
0.55599  3.264300  0.000000
0.55975  3.258700  0.000000
0.56357  3.251700  0.000000
0.56744  3.243500  0.000000
0.57136  3.236800  0.000000
0.57534  3.231800  0.000000
0.57937  3.225300  0.000000
0.58346  3.218300  0.000000
0.58761  3.212700  0.000000
0.59181  3.207300  0.000000
0.59608  3.201300  0.000000
0.60041  3.194600  0.000000
0.60481  3.188100  0.000000
0.60926  3.182500  0.000000
0.61379  3.176200  0.000000
0.61838  3.169900  0.000000
0.62304  3.164400  0.000000
0.62777  3.159700  0.000000
0.63258  3.155100  0.000000
0.63746  3.149900  0.000000
0.64241  3.144800  0.000000
0.64744  3.139800  0.000000
0.65255  3.135500  0.000000
0.65775  3.131300  0.000000
0.66302  3.126500  0.000000
0.66838  3.121000  0.000000
0.67383  3.115000  0.000000
0.67937  3.109700  0.000000
0.68500  3.105900  0.000000
0.69073  3.102100  0.000000
0.69655  3.097000  0.000000
0.70247  3.092700  0.000000
0.70849  3.089800  0.000000
0.71461  3.085600  0.000000
0.72084  3.080100  0.000000
0.72719  3.076100  0.000000
0.73364  3.072800  0.000000
0.74021  3.068100  0.000000
0.74690  3.064200  0.000000
0.75371  3.061000  0.000000
0.76065  3.056600  0.000000
0.76771  3.052200  0.000000
0.77491  3.048600  0.000000
0.78224  3.045700  0.000000
0.78971  3.042800  0.000000
0.79733  3.039300  0.000000
0.80510  3.035900  0.000000
0.81302  3.032500  0.000000
0.82109  3.029800  0.000000
0.82933  3.026500  0.000000
0.83774  3.022600  0.000000
0.84632  3.020100  0.000000
0.85507  3.017600  0.000000
0.86401  3.014500  0.000000
0.87314  3.011500  0.000000
0.88246  3.007800  0.000000
0.89198  3.003500  0.000000
0.90171  3.000600  0.000000
0.91166  2.999000  0.000000
0.92182  2.996900  0.000000
0.93222  2.994100  0.000000
0.94285  2.991400  0.000000
0.95373  2.988700  0.000000
0.96487  2.985300  0.000000
0.97626  2.982100  0.000000
0.98793  2.980200  0.000000
