; From SOPRA S.A. http://www.sopra-sa.com/indices.htm
; Filename    Symbol               Range (nm)     Description
; ALAS578T    AlAs                275      987    Aluminum Arsenide (Temp: 578 C)
; lambda/um       n         k
0.27583  4.042000  3.115300
0.27675  4.083400  3.064300
0.27768  4.113600  3.016000
0.27862  4.132700  2.972600
0.27956  4.147000  2.930400
0.28051  4.161100  2.885800
0.28146  4.172400  2.839600
0.28243  4.181700  2.792900
0.28339  4.192800  2.745800
0.28437  4.206700  2.698100
0.28535  4.216800  2.654200
0.28634  4.221300  2.614700
0.28734  4.223800  2.577900
0.28834  4.222900  2.544600
0.28935  4.222200  2.512400
0.29036  4.224200  2.481900
0.29139  4.226100  2.453400
0.29242  4.229100  2.423700
0.29346  4.232800  2.392100
0.29450  4.234400  2.361000
0.29555  4.233000  2.333700
0.29662  4.232300  2.309800
0.29768  4.235200  2.289100
0.29876  4.238700  2.272000
0.29984  4.241100  2.255300
0.30093  4.241800  2.238700
0.30203  4.240900  2.223400
0.30314  4.239700  2.207600
0.30426  4.238700  2.191100
0.30538  4.239100  2.176600
0.30651  4.243200  2.164400
0.30766  4.252100  2.151800
0.30880  4.263200  2.138800
0.30996  4.274200  2.126700
0.31113  4.286600  2.113000
0.31231  4.300200  2.098900
0.31349  4.314500  2.086500
0.31468  4.330100  2.073800
0.31589  4.347700  2.059400
0.31710  4.368400  2.044800
0.31832  4.390700  2.030600
0.31955  4.410900  2.015800
0.32079  4.428600  1.998500
0.32204  4.448000  1.977600
0.32330  4.471200  1.953200
0.32457  4.493000  1.926900
0.32585  4.511400  1.899600
0.32714  4.529200  1.870100
0.32844  4.547600  1.838500
0.32975  4.566500  1.805100
0.33107  4.583800  1.771700
0.33240  4.598500  1.739000
0.33374  4.613400  1.704200
0.33510  4.631600  1.666700
0.33646  4.651900  1.628400
0.33783  4.670300  1.588900
0.33922  4.687400  1.546700
0.34062  4.704200  1.502600
0.34203  4.718300  1.457100
0.34345  4.728900  1.409400
0.34488  4.736200  1.361600
0.34633  4.739000  1.314500
0.34778  4.739000  1.265900
0.34925  4.738200  1.216800
0.35074  4.734700  1.169800
0.35223  4.727200  1.123600
0.35374  4.717900  1.076100
0.35526  4.707300  1.028800
0.35679  4.693200  0.983820
0.35834  4.676000  0.941330
0.35990  4.656500  0.902510
0.36147  4.634800  0.865900
0.36306  4.613300  0.829460
0.36466  4.592100  0.794650
0.36628  4.569500  0.762660
0.36791  4.545700  0.731840
0.36955  4.522900  0.700270
0.37121  4.502200  0.668760
0.37289  4.481800  0.638670
0.37458  4.461400  0.609880
0.37628  4.441200  0.582640
0.37800  4.421000  0.556780
0.37974  4.400600  0.531980
0.38149  4.379300  0.509320
0.38326  4.357100  0.489880
0.38505  4.334300  0.472970
0.38685  4.311700  0.456710
0.38867  4.289600  0.440080
0.39050  4.267200  0.422900
0.39236  4.245600  0.404720
0.39423  4.225200  0.386050
0.39612  4.205200  0.368730
0.39803  4.185200  0.353200
0.39995  4.165400  0.338860
0.40190  4.145900  0.325610
0.40386  4.126900  0.313310
0.40584  4.108300  0.301480
0.40785  4.089700  0.289370
0.40987  4.071500  0.277250
0.41191  4.054300  0.265420
0.41397  4.038000  0.253790
0.41606  4.022200  0.242840
0.41816  4.006800  0.232320
0.42029  3.991700  0.221580
0.42244  3.976600  0.210420
0.42461  3.960700  0.200010
0.42680  3.944400  0.191220
0.42901  3.928600  0.182080
0.43125  3.914400  0.171570
0.43351  3.901400  0.161010
0.43580  3.887600  0.151370
0.43811  3.871600  0.142680
0.44044  3.854100  0.134550
0.44280  3.837700  0.127230
0.44519  3.822600  0.120940
0.44760  3.807100  0.114690
0.45004  3.792000  0.108080
0.45250  3.777400  0.101500
0.45499  3.763300  0.095081
0.45751  3.749500  0.089221
0.46006  3.735400  0.084401
0.46263  3.721500  0.080345
0.46524  3.708000  0.076102
0.46787  3.694200  0.071303
0.47053  3.680900  0.066365
0.47323  3.668500  0.061999
0.47595  3.657600  0.057461
0.47871  3.647000  0.051576
0.48150  3.634800  0.045657
0.48432  3.621400  0.040711
0.48717  3.607500  0.036383
0.49006  3.593100  0.032362
0.49298  3.579800  0.028893
0.49594  3.567500  0.026534
0.49893  3.555000  0.024589
0.50196  3.543800  0.022244
0.50503  3.534100  0.019584
0.50814  3.523300  0.016691
0.51128  3.511100  0.013675
0.51446  3.500000  0.010777
0.51768  3.489500  0.007978
0.52095  3.477600  0.005066
0.52425  3.465200  0.002328
0.52760  3.453600  0.000547
0.53099  3.442900  0.000000
0.53442  3.431900  0.000000
0.53790  3.420900  0.000000
0.54142  3.411100  0.000000
0.54499  3.401000  0.000000
0.54861  3.391200  0.000000
0.55227  3.382300  0.000000
0.55599  3.374300  0.000000
0.55975  3.367000  0.000000
0.56357  3.358800  0.000000
0.56744  3.349600  0.000000
0.57136  3.341700  0.000000
0.57534  3.335300  0.000000
0.57937  3.327800  0.000000
0.58346  3.319900  0.000000
0.58761  3.313300  0.000000
0.59181  3.307000  0.000000
0.59608  3.300100  0.000000
0.60041  3.292700  0.000000
0.60481  3.285500  0.000000
0.60926  3.279000  0.000000
0.61379  3.272000  0.000000
0.61838  3.265200  0.000000
0.62304  3.259000  0.000000
0.62777  3.253600  0.000000
0.63258  3.248300  0.000000
0.63746  3.242500  0.000000
0.64241  3.236900  0.000000
0.64744  3.231300  0.000000
0.65255  3.226300  0.000000
0.65775  3.221500  0.000000
0.66302  3.216200  0.000000
0.66838  3.210500  0.000000
0.67383  3.204200  0.000000
0.67937  3.198500  0.000000
0.68500  3.194200  0.000000
0.69073  3.189900  0.000000
0.69655  3.184500  0.000000
0.70247  3.179800  0.000000
0.70849  3.176400  0.000000
0.71461  3.171800  0.000000
0.72084  3.166100  0.000000
0.72719  3.161700  0.000000
0.73364  3.157900  0.000000
0.74021  3.153000  0.000000
0.74690  3.148800  0.000000
0.75371  3.145300  0.000000
0.76065  3.140600  0.000000
0.76771  3.136000  0.000000
0.77491  3.132100  0.000000
0.78224  3.128800  0.000000
0.78971  3.125600  0.000000
0.79733  3.121900  0.000000
0.80510  3.118100  0.000000
0.81302  3.114500  0.000000
0.82109  3.111500  0.000000
0.82933  3.108000  0.000000
0.83774  3.104000  0.000000
0.84632  3.101100  0.000000
0.85507  3.098300  0.000000
0.86401  3.095000  0.000000
0.87314  3.091700  0.000000
0.88246  3.088000  0.000000
0.89198  3.083700  0.000000
0.90171  3.080600  0.000000
0.91166  3.078700  0.000000
0.92182  3.076300  0.000000
0.93222  3.073300  0.000000
0.94285  3.070400  0.000000
0.95373  3.067500  0.000000
0.96487  3.064200  0.000000
0.97626  3.060800  0.000000
0.98793  3.058700  0.000000
