; From SOPRA S.A. http://www.sopra-sa.com/indices.htm
; Filename    Symbol               Range (nm)     Description
; ALAS421T    AlAs                275      987    Aluminum Arsenide (Temp: 421 C)
; lambda/um       n         k
0.27583  4.197200  3.021200
0.27675  4.214400  2.968200
0.27768  4.231600  2.913900
0.27862  4.247400  2.862500
0.27956  4.259900  2.810500
0.28051  4.269100  2.757200
0.28146  4.275500  2.703000
0.28243  4.281100  2.650400
0.28339  4.287400  2.604800
0.28437  4.290500  2.564700
0.28535  4.289400  2.527500
0.28634  4.288000  2.494600
0.28734  4.285500  2.463000
0.28834  4.280600  2.433500
0.28935  4.274200  2.410000
0.29036  4.266300  2.390300
0.29139  4.257600  2.370600
0.29242  4.250500  2.353200
0.29346  4.246700  2.338500
0.29450  4.243600  2.324600
0.29555  4.239700  2.311300
0.29662  4.236700  2.295000
0.29768  4.236600  2.277700
0.29876  4.240300  2.264900
0.29984  4.246400  2.253300
0.30093  4.253500  2.240600
0.30203  4.261700  2.230200
0.30314  4.271300  2.221400
0.30426  4.281500  2.212200
0.30538  4.292400  2.203200
0.30651  4.305900  2.194200
0.30766  4.322600  2.184400
0.30880  4.342800  2.174600
0.30996  4.363200  2.165900
0.31113  4.382300  2.157000
0.31231  4.404300  2.145900
0.31349  4.432100  2.131800
0.31468  4.464000  2.114300
0.31589  4.494500  2.094800
0.31710  4.522400  2.073700
0.31832  4.550000  2.048700
0.31955  4.577800  2.019900
0.32079  4.608000  1.990100
0.32204  4.639000  1.959500
0.32330  4.672300  1.927200
0.32457  4.709100  1.893300
0.32585  4.742700  1.857300
0.32714  4.769800  1.818400
0.32844  4.789500  1.776400
0.32975  4.802100  1.729500
0.33107  4.810500  1.676500
0.33240  4.818100  1.620800
0.33374  4.827200  1.564900
0.33510  4.837600  1.507700
0.33646  4.850100  1.448900
0.33783  4.861400  1.390300
0.33922  4.866700  1.331500
0.34062  4.866600  1.272900
0.34203  4.862100  1.215200
0.34345  4.852700  1.157500
0.34488  4.839600  1.101100
0.34633  4.823500  1.047700
0.34778  4.804400  0.997910
0.34925  4.782900  0.950800
0.35074  4.760000  0.905040
0.35223  4.735500  0.861300
0.35374  4.709700  0.820670
0.35526  4.682700  0.783830
0.35679  4.654800  0.750590
0.35834  4.626600  0.719760
0.35990  4.598800  0.690930
0.36147  4.570900  0.664050
0.36306  4.542500  0.639170
0.36466  4.514800  0.614270
0.36628  4.489200  0.587490
0.36791  4.464800  0.560670
0.36955  4.440800  0.535220
0.37121  4.417500  0.512090
0.37289  4.394400  0.492390
0.37458  4.370800  0.474940
0.37628  4.346800  0.457410
0.37800  4.323600  0.439030
0.37974  4.301100  0.420770
0.38149  4.278900  0.402660
0.38326  4.257700  0.384550
0.38505  4.237400  0.367790
0.38685  4.217200  0.353510
0.38867  4.197100  0.341160
0.39050  4.177000  0.329890
0.39236  4.157000  0.319310
0.39423  4.137400  0.307750
0.39612  4.118400  0.295060
0.39803  4.099500  0.282550
0.39995  4.081100  0.270080
0.40190  4.063600  0.258680
0.40386  4.046200  0.247560
0.40584  4.028400  0.234360
0.40785  4.010700  0.221420
0.40987  3.993900  0.210730
0.41191  3.978300  0.199740
0.41397  3.963400  0.187720
0.41606  3.947900  0.176200
0.41816  3.931100  0.164520
0.42029  3.913200  0.152540
0.42244  3.895800  0.141550
0.42461  3.881600  0.131670
0.42680  3.870900  0.122730
0.42901  3.860000  0.114400
0.43125  3.847500  0.106280
0.43351  3.835500  0.098811
0.43580  3.824300  0.091996
0.43811  3.811800  0.085693
0.44044  3.795400  0.080261
0.44280  3.777000  0.075604
0.44519  3.759400  0.071297
0.44760  3.741300  0.066161
0.45004  3.722600  0.060212
0.45250  3.704100  0.056078
0.45499  3.688100  0.052967
0.45751  3.673900  0.048000
0.46006  3.658300  0.042532
0.46263  3.642100  0.037868
0.46524  3.625600  0.033104
0.46787  3.608400  0.028587
0.47053  3.592400  0.024533
0.47323  3.577600  0.020112
0.47595  3.563600  0.015395
0.47871  3.550500  0.010626
0.48150  3.536300  0.005552
0.48432  3.520400  0.001455
0.48717  3.503700  0.000000
0.49006  3.487700  0.000000
0.49298  3.474500  0.000000
0.49594  3.462600  0.000000
0.49893  3.449900  0.000000
0.50196  3.438400  0.000000
0.50503  3.428600  0.000000
0.50814  3.417900  0.000000
0.51128  3.406000  0.000000
0.51446  3.395800  0.000000
0.51768  3.386600  0.000000
0.52095  3.376300  0.000000
0.52425  3.366300  0.000000
0.52760  3.357800  0.000000
0.53099  3.350100  0.000000
0.53442  3.341400  0.000000
0.53790  3.332100  0.000000
0.54142  3.323700  0.000000
0.54499  3.314800  0.000000
0.54861  3.306100  0.000000
0.55227  3.298200  0.000000
0.55599  3.291100  0.000000
0.55975  3.284800  0.000000
0.56357  3.277400  0.000000
0.56744  3.268900  0.000000
0.57136  3.261700  0.000000
0.57534  3.255900  0.000000
0.57937  3.249000  0.000000
0.58346  3.241500  0.000000
0.58761  3.235600  0.000000
0.59181  3.229700  0.000000
0.59608  3.223300  0.000000
0.60041  3.216300  0.000000
0.60481  3.209500  0.000000
0.60926  3.203400  0.000000
0.61379  3.196700  0.000000
0.61838  3.190200  0.000000
0.62304  3.184400  0.000000
0.62777  3.179300  0.000000
0.63258  3.174400  0.000000
0.63746  3.168800  0.000000
0.64241  3.163400  0.000000
0.64744  3.158100  0.000000
0.65255  3.153500  0.000000
0.65775  3.148900  0.000000
0.66302  3.143800  0.000000
0.66838  3.138200  0.000000
0.67383  3.132000  0.000000
0.67937  3.126500  0.000000
0.68500  3.122400  0.000000
0.69073  3.118300  0.000000
0.69655  3.113000  0.000000
0.70247  3.108500  0.000000
0.70849  3.105300  0.000000
0.71461  3.100900  0.000000
0.72084  3.095200  0.000000
0.72719  3.091000  0.000000
0.73364  3.087400  0.000000
0.74021  3.082600  0.000000
0.74690  3.078600  0.000000
0.75371  3.075200  0.000000
0.76065  3.070500  0.000000
0.76771  3.066000  0.000000
0.77491  3.062200  0.000000
0.78224  3.059000  0.000000
0.78971  3.055900  0.000000
0.79733  3.052200  0.000000
0.80510  3.048700  0.000000
0.81302  3.045100  0.000000
0.82109  3.042200  0.000000
0.82933  3.038700  0.000000
0.83774  3.034700  0.000000
0.84632  3.032000  0.000000
0.85507  3.029300  0.000000
0.86401  3.026100  0.000000
0.87314  3.022900  0.000000
0.88246  3.019100  0.000000
0.89198  3.014800  0.000000
0.90171  3.011700  0.000000
0.91166  3.010000  0.000000
0.92182  3.007600  0.000000
0.93222  3.004700  0.000000
0.94285  3.001800  0.000000
0.95373  2.999000  0.000000
0.96487  2.995600  0.000000
0.97626  2.992300  0.000000
0.98793  2.990200  0.000000
