; From SOPRA S.A. http://www.sopra-sa.com/indices.htm
; Filename    Symbol               Range (nm)     Description
; ALAS626T    AlAs                275      987    Aluminum Arsenide (Temp: 626 C)
; lambda/um       n         k
0.27583  3.935900  3.095000
0.27675  3.966700  3.046600
0.27768  4.004200  3.004900
0.27862  4.044800  2.964200
0.27956  4.079800  2.927300
0.28051  4.114400  2.896100
0.28146  4.145600  2.864100
0.28243  4.176400  2.823500
0.28339  4.199200  2.778300
0.28437  4.205500  2.733200
0.28535  4.201000  2.682400
0.28634  4.189000  2.633500
0.28734  4.183900  2.588300
0.28834  4.183100  2.538000
0.28935  4.176100  2.492100
0.29036  4.178400  2.456500
0.29139  4.194000  2.425300
0.29242  4.209800  2.400400
0.29346  4.219600  2.382000
0.29450  4.223400  2.360700
0.29555  4.225800  2.333700
0.29662  4.225600  2.310300
0.29768  4.224700  2.294000
0.29876  4.223800  2.276400
0.29984  4.219400  2.257000
0.30093  4.217600  2.238000
0.30203  4.218200  2.216400
0.30314  4.219100  2.194100
0.30426  4.224800  2.173000
0.30538  4.233400  2.149800
0.30651  4.239600  2.126700
0.30766  4.244000  2.110400
0.30880  4.254000  2.099800
0.30996  4.270400  2.090100
0.31113  4.287900  2.080100
0.31231  4.303900  2.068000
0.31349  4.312500  2.054900
0.31468  4.315000  2.045000
0.31589  4.317300  2.036300
0.31710  4.319400  2.025300
0.31832  4.324000  2.014900
0.31955  4.335300  2.004700
0.32079  4.353500  1.989500
0.32204  4.376000  1.968300
0.32330  4.400300  1.944700
0.32457  4.426900  1.921200
0.32585  4.452500  1.897100
0.32714  4.474400  1.871000
0.32844  4.493500  1.840800
0.32975  4.510800  1.807000
0.33107  4.532200  1.771400
0.33240  4.556900  1.733400
0.33374  4.578800  1.692800
0.33510  4.598100  1.652000
0.33646  4.617900  1.613800
0.33783  4.639200  1.576800
0.33922  4.659000  1.539500
0.34062  4.674800  1.501100
0.34203  4.685100  1.461300
0.34345  4.690900  1.420300
0.34488  4.696400  1.377200
0.34633  4.701900  1.332400
0.34778  4.706000  1.286400
0.34925  4.709000  1.240700
0.35074  4.710300  1.195800
0.35223  4.709300  1.149500
0.35374  4.706400  1.102000
0.35526  4.702000  1.055500
0.35679  4.693100  1.012500
0.35834  4.679100  0.974180
0.35990  4.663800  0.938230
0.36147  4.647200  0.901690
0.36306  4.629500  0.863580
0.36466  4.610200  0.826830
0.36628  4.588200  0.792800
0.36791  4.567100  0.758820
0.36955  4.548900  0.724800
0.37121  4.531000  0.693580
0.37289  4.510800  0.666170
0.37458  4.488900  0.640050
0.37628  4.468800  0.612280
0.37800  4.450000  0.583500
0.37974  4.430500  0.556250
0.38149  4.408800  0.532320
0.38326  4.385300  0.510370
0.38505  4.363000  0.488050
0.38685  4.341700  0.467270
0.38867  4.319600  0.449670
0.39050  4.297500  0.433020
0.39236  4.277200  0.415960
0.39423  4.259300  0.397780
0.39612  4.241500  0.378310
0.39803  4.221700  0.361640
0.39995  4.201200  0.350120
0.40190  4.181400  0.338700
0.40386  4.162100  0.323200
0.40584  4.142600  0.308020
0.40785  4.122800  0.295700
0.40987  4.103700  0.284560
0.41191  4.085700  0.272790
0.41397  4.068300  0.259620
0.41606  4.051200  0.247460
0.41816  4.034300  0.236930
0.42029  4.017800  0.227200
0.42244  4.002700  0.217240
0.42461  3.988300  0.205770
0.42680  3.974500  0.195010
0.42901  3.961100  0.188190
0.43125  3.947800  0.182510
0.43351  3.935000  0.173720
0.43580  3.922100  0.162970
0.43811  3.907900  0.152920
0.44044  3.892300  0.143440
0.44280  3.876100  0.134570
0.44519  3.859800  0.127610
0.44760  3.843300  0.122250
0.45004  3.828200  0.117100
0.45250  3.814300  0.111650
0.45499  3.801400  0.106050
0.45751  3.788700  0.099603
0.46006  3.774600  0.093816
0.46263  3.760100  0.089986
0.46524  3.746500  0.086824
0.46787  3.733500  0.083526
0.47053  3.721400  0.079264
0.47323  3.709400  0.074974
0.47595  3.698500  0.072348
0.47871  3.690400  0.069352
0.48150  3.682100  0.063593
0.48432  3.671600  0.056610
0.48717  3.659400  0.050506
0.49006  3.646300  0.045190
0.49298  3.634200  0.039921
0.49594  3.622000  0.035122
0.49893  3.608700  0.031794
0.50196  3.596900  0.029214
0.50503  3.586800  0.026364
0.50814  3.575900  0.023334
0.51128  3.563800  0.020250
0.51446  3.552700  0.017660
0.51768  3.542700  0.015604
0.52095  3.532200  0.013148
0.52425  3.521600  0.010226
0.52760  3.511800  0.007132
0.53099  3.501900  0.004166
0.53442  3.490600  0.001977
0.53790  3.478700  0.000569
0.54142  3.467600  0.000000
0.54499  3.456900  0.000000
0.54861  3.446700  0.000000
0.55227  3.437500  0.000000
0.55599  3.429200  0.000000
0.55975  3.421600  0.000000
0.56357  3.413400  0.000000
0.56744  3.404300  0.000000
0.57136  3.396500  0.000000
0.57534  3.389800  0.000000
0.57937  3.382300  0.000000
0.58346  3.374500  0.000000
0.58761  3.367900  0.000000
0.59181  3.361400  0.000000
0.59608  3.354500  0.000000
0.60041  3.347300  0.000000
0.60481  3.340300  0.000000
0.60926  3.334000  0.000000
0.61379  3.327200  0.000000
0.61838  3.320500  0.000000
0.62304  3.314500  0.000000
0.62777  3.309100  0.000000
0.63258  3.303800  0.000000
0.63746  3.298100  0.000000
0.64241  3.292500  0.000000
0.64744  3.287100  0.000000
0.65255  3.282200  0.000000
0.65775  3.277400  0.000000
0.66302  3.272200  0.000000
0.66838  3.266500  0.000000
0.67383  3.260400  0.000000
0.67937  3.255000  0.000000
0.68500  3.250700  0.000000
0.69073  3.246500  0.000000
0.69655  3.241300  0.000000
0.70247  3.236700  0.000000
0.70849  3.233200  0.000000
0.71461  3.228700  0.000000
0.72084  3.223300  0.000000
0.72719  3.219000  0.000000
0.73364  3.215300  0.000000
0.74021  3.210600  0.000000
0.74690  3.206600  0.000000
0.75371  3.203100  0.000000
0.76065  3.198600  0.000000
0.76771  3.194200  0.000000
0.77491  3.190300  0.000000
0.78224  3.187000  0.000000
0.78971  3.183800  0.000000
0.79733  3.180200  0.000000
0.80510  3.176600  0.000000
0.81302  3.173100  0.000000
0.82109  3.170100  0.000000
0.82933  3.166700  0.000000
0.83774  3.162800  0.000000
0.84632  3.160000  0.000000
0.85507  3.157200  0.000000
0.86401  3.154000  0.000000
0.87314  3.150900  0.000000
0.88246  3.147300  0.000000
0.89198  3.143300  0.000000
0.90171  3.140300  0.000000
0.91166  3.138300  0.000000
0.92182  3.135900  0.000000
0.93222  3.133000  0.000000
0.94285  3.130200  0.000000
0.95373  3.127500  0.000000
0.96487  3.124200  0.000000
0.97626  3.121100  0.000000
0.98793  3.118900  0.000000
