; From SOPRA S.A. http://www.sopra-sa.com/indices.htm
; Filename    Symbol               Range (nm)     Description
; ALAS152T    AlAs                275      987    Aluminum Arsenide (Temp: 152 C)
; lambda/um       n         k
0.27583  4.417100  2.719300
0.27675  4.413300  2.662200
0.27768  4.407500  2.608800
0.27862  4.397500  2.557600
0.27956  4.381200  2.512200
0.28051  4.361900  2.473900
0.28146  4.341100  2.437800
0.28243  4.318600  2.404800
0.28339  4.298400  2.378100
0.28437  4.281900  2.354600
0.28535  4.266700  2.335100
0.28634  4.250100  2.324700
0.28734  4.230800  2.319600
0.28834  4.215000  2.313600
0.28935  4.206900  2.307700
0.29036  4.202800  2.303500
0.29139  4.202200  2.301300
0.29242  4.206700  2.301000
0.29346  4.214600  2.301200
0.29450  4.225000  2.300800
0.29555  4.237600  2.302400
0.29662  4.252100  2.305100
0.29768  4.269600  2.305000
0.29876  4.291000  2.303800
0.29984  4.317200  2.304000
0.30093  4.348400  2.305000
0.30203  4.383300  2.305200
0.30314  4.422600  2.304500
0.30426  4.465300  2.301100
0.30538  4.510300  2.291900
0.30651  4.556900  2.277900
0.30766  4.602800  2.260200
0.30880  4.648300  2.238600
0.30996  4.695600  2.214300
0.31113  4.745600  2.185600
0.31231  4.795500  2.148900
0.31349  4.841100  2.105000
0.31468  4.885300  2.058500
0.31589  4.932800  2.011800
0.31710  4.981400  1.960400
0.31832  5.026200  1.901100
0.31955  5.065200  1.836900
0.32079  5.101900  1.767400
0.32204  5.134700  1.690000
0.32330  5.164600  1.603900
0.32457  5.190800  1.512200
0.32585  5.200200  1.422000
0.32714  5.190000  1.337700
0.32844  5.167200  1.258300
0.32975  5.132200  1.182500
0.33107  5.085100  1.112000
0.33240  5.032400  1.048500
0.33374  4.980600  0.990280
0.33510  4.932800  0.935120
0.33646  4.893400  0.882430
0.33783  4.861400  0.834190
0.33922  4.826300  0.792240
0.34062  4.788500  0.754440
0.34203  4.753000  0.718230
0.34345  4.718300  0.684930
0.34488  4.684600  0.656130
0.34633  4.652400  0.629570
0.34778  4.620500  0.602280
0.34925  4.589900  0.575210
0.35074  4.560800  0.551180
0.35223  4.531100  0.529930
0.35374  4.500700  0.509170
0.35526  4.471400  0.488070
0.35679  4.443500  0.468660
0.35834  4.416000  0.452720
0.35990  4.389400  0.439650
0.36147  4.363300  0.427510
0.36306  4.338700  0.413420
0.36466  4.316600  0.397480
0.36628  4.295900  0.381520
0.36791  4.274900  0.366180
0.36955  4.253700  0.351490
0.37121  4.233200  0.337470
0.37289  4.213000  0.325610
0.37458  4.193200  0.315260
0.37628  4.174700  0.304380
0.37800  4.157500  0.293640
0.37974  4.141000  0.282560
0.38149  4.125100  0.270400
0.38326  4.108900  0.257410
0.38505  4.093100  0.244510
0.38685  4.077400  0.231620
0.38867  4.059400  0.218100
0.39050  4.040900  0.205850
0.39236  4.024900  0.194080
0.39423  4.009700  0.180910
0.39612  3.991600  0.167820
0.39803  3.972000  0.156120
0.39995  3.954300  0.145320
0.40190  3.935800  0.134740
0.40386  3.916200  0.124720
0.40584  3.897700  0.115920
0.40785  3.879300  0.107710
0.40987  3.862100  0.099170
0.41191  3.846500  0.090410
0.41397  3.829000  0.081653
0.41606  3.810200  0.073561
0.41816  3.792200  0.066536
0.42029  3.773900  0.059957
0.42244  3.756000  0.053787
0.42461  3.739200  0.047883
0.42680  3.722500  0.042054
0.42901  3.705800  0.036838
0.43125  3.690600  0.032027
0.43351  3.676500  0.026815
0.43580  3.661300  0.021607
0.43811  3.644600  0.016952
0.44044  3.627200  0.012225
0.44280  3.610900  0.007175
0.44519  3.594300  0.002743
0.44760  3.575600  0.000437
0.45004  3.558000  0.000000
0.45250  3.542700  0.000000
0.45499  3.529200  0.000000
0.45751  3.517000  0.000000
0.46006  3.504600  0.000000
0.46263  3.491900  0.000000
0.46524  3.478800  0.000000
0.46787  3.465400  0.000000
0.47053  3.453100  0.000000
0.47323  3.441900  0.000000
0.47595  3.431800  0.000000
0.47871  3.422700  0.000000
0.48150  3.413100  0.000000
0.48432  3.403000  0.000000
0.48717  3.392200  0.000000
0.49006  3.381000  0.000000
0.49298  3.371600  0.000000
0.49594  3.363100  0.000000
0.49893  3.353300  0.000000
0.50196  3.344400  0.000000
0.50503  3.337200  0.000000
0.50814  3.328700  0.000000
0.51128  3.318800  0.000000
0.51446  3.310500  0.000000
0.51768  3.303300  0.000000
0.52095  3.294600  0.000000
0.52425  3.286100  0.000000
0.52760  3.279200  0.000000
0.53099  3.273300  0.000000
0.53442  3.265900  0.000000
0.53790  3.258000  0.000000
0.54142  3.250900  0.000000
0.54499  3.243200  0.000000
0.54861  3.235600  0.000000
0.55227  3.228900  0.000000
0.55599  3.223100  0.000000
0.55975  3.218100  0.000000
0.56357  3.211800  0.000000
0.56744  3.203900  0.000000
0.57136  3.197800  0.000000
0.57534  3.193200  0.000000
0.57937  3.187200  0.000000
0.58346  3.180500  0.000000
0.58761  3.175500  0.000000
0.59181  3.170600  0.000000
0.59608  3.165000  0.000000
0.60041  3.158700  0.000000
0.60481  3.152500  0.000000
0.60926  3.147200  0.000000
0.61379  3.141100  0.000000
0.61838  3.135200  0.000000
0.62304  3.130100  0.000000
0.62777  3.125800  0.000000
0.63258  3.121600  0.000000
0.63746  3.116700  0.000000
0.64241  3.111900  0.000000
0.64744  3.107200  0.000000
0.65255  3.103200  0.000000
0.65775  3.099300  0.000000
0.66302  3.094800  0.000000
0.66838  3.089700  0.000000
0.67383  3.083800  0.000000
0.67937  3.078700  0.000000
0.68500  3.075200  0.000000
0.69073  3.071700  0.000000
0.69655  3.066900  0.000000
0.70247  3.062800  0.000000
0.70849  3.060200  0.000000
0.71461  3.056300  0.000000
0.72084  3.050900  0.000000
0.72719  3.047000  0.000000
0.73364  3.044000  0.000000
0.74021  3.039500  0.000000
0.74690  3.035900  0.000000
0.75371  3.033000  0.000000
0.76065  3.028700  0.000000
0.76771  3.024500  0.000000
0.77491  3.021000  0.000000
0.78224  3.018200  0.000000
0.78971  3.015600  0.000000
0.79733  3.012300  0.000000
0.80510  3.009000  0.000000
0.81302  3.005800  0.000000
0.82109  3.003400  0.000000
0.82933  3.000200  0.000000
0.83774  2.996400  0.000000
0.84632  2.994100  0.000000
0.85507  2.991800  0.000000
0.86401  2.988900  0.000000
0.87314  2.986000  0.000000
0.88246  2.982400  0.000000
0.89198  2.978200  0.000000
0.90171  2.975400  0.000000
0.91166  2.974100  0.000000
0.92182  2.972100  0.000000
0.93222  2.969500  0.000000
0.94285  2.966900  0.000000
0.95373  2.964300  0.000000
0.96487  2.961100  0.000000
0.97626  2.957900  0.000000
0.98793  2.956100  0.000000
