; From SOPRA S.A. http://www.sopra-sa.com/indices.htm
; Filename    Symbol               Range (nm)     Description
; ALAS469T    AlAs                275      987    Aluminum Arsenide (Temp: 469 C)
; lambda/um       n         k
0.27583  4.231600  3.032000
0.27675  4.254800  2.980300
0.27768  4.268600  2.926800
0.27862  4.275500  2.874200
0.27956  4.279300  2.826600
0.28051  4.281100  2.779400
0.28146  4.278900  2.731200
0.28243  4.274200  2.684100
0.28339  4.270800  2.638000
0.28437  4.269800  2.592600
0.28535  4.267800  2.548100
0.28634  4.260100  2.508200
0.28734  4.252700  2.472200
0.28834  4.253600  2.436000
0.28935  4.258200  2.402000
0.29036  4.258200  2.373000
0.29139  4.252900  2.348500
0.29242  4.245900  2.327200
0.29346  4.239400  2.307200
0.29450  4.233700  2.288500
0.29555  4.227200  2.271900
0.29662  4.219500  2.258000
0.29768  4.216700  2.246000
0.29876  4.222400  2.232400
0.29984  4.230500  2.219700
0.30093  4.237500  2.210300
0.30203  4.245600  2.200500
0.30314  4.255100  2.188500
0.30426  4.266200  2.175800
0.30538  4.278300  2.164000
0.30651  4.289300  2.153700
0.30766  4.300700  2.144700
0.30880  4.315500  2.135800
0.30996  4.334900  2.127100
0.31113  4.355700  2.118000
0.31231  4.377000  2.107600
0.31349  4.400500  2.096100
0.31468  4.425000  2.081000
0.31589  4.450700  2.063800
0.31710  4.478000  2.044500
0.31832  4.503500  2.023500
0.31955  4.528200  2.002800
0.32079  4.554700  1.978500
0.32204  4.582600  1.949900
0.32330  4.611100  1.920100
0.32457  4.638700  1.890800
0.32585  4.662400  1.860200
0.32714  4.681400  1.825200
0.32844  4.697200  1.787000
0.32975  4.710100  1.745800
0.33107  4.719300  1.702200
0.33240  4.728700  1.657200
0.33374  4.742100  1.606900
0.33510  4.758500  1.553400
0.33646  4.775500  1.501700
0.33783  4.790600  1.449400
0.33922  4.801800  1.394600
0.34062  4.809300  1.339300
0.34203  4.813300  1.284400
0.34345  4.812600  1.229300
0.34488  4.807100  1.175200
0.34633  4.798600  1.122600
0.34778  4.787400  1.071400
0.34925  4.772600  1.022400
0.35074  4.754200  0.975820
0.35223  4.733700  0.929880
0.35374  4.711400  0.885470
0.35526  4.687000  0.845390
0.35679  4.662100  0.808120
0.35834  4.637500  0.772130
0.35990  4.612100  0.739100
0.36147  4.586200  0.709150
0.36306  4.561100  0.681440
0.36466  4.536300  0.655370
0.36628  4.512100  0.629410
0.36791  4.488600  0.603220
0.36955  4.464700  0.578480
0.37121  4.440200  0.555710
0.37289  4.416600  0.532960
0.37458  4.394000  0.510390
0.37628  4.371400  0.489950
0.37800  4.348800  0.471260
0.37974  4.326600  0.453140
0.38149  4.304500  0.435070
0.38326  4.282600  0.417120
0.38505  4.261100  0.399890
0.38685  4.239700  0.383720
0.38867  4.218800  0.367820
0.39050  4.198500  0.351780
0.39236  4.178800  0.336690
0.39423  4.159500  0.323150
0.39612  4.140500  0.310680
0.39803  4.121700  0.298580
0.39995  4.103400  0.286850
0.40190  4.085500  0.275590
0.40386  4.067900  0.264490
0.40584  4.050500  0.253100
0.40785  4.033200  0.240780
0.40987  4.016100  0.228530
0.41191  4.000000  0.217610
0.41397  3.984800  0.207950
0.41606  3.970000  0.198960
0.41816  3.954800  0.190140
0.42029  3.938300  0.181580
0.42244  3.920700  0.172800
0.42461  3.904100  0.163290
0.42680  3.890200  0.153320
0.42901  3.878400  0.143390
0.43125  3.867000  0.134060
0.43351  3.854000  0.125270
0.43580  3.838600  0.116860
0.43811  3.821600  0.109460
0.44044  3.804700  0.103160
0.44280  3.789900  0.097255
0.44519  3.776700  0.091165
0.44760  3.762700  0.083917
0.45004  3.747500  0.075595
0.45250  3.731400  0.068178
0.45499  3.715600  0.062704
0.45751  3.701300  0.058706
0.46006  3.687700  0.055289
0.46263  3.674500  0.051587
0.46524  3.661100  0.047573
0.46787  3.647500  0.043293
0.47053  3.634500  0.038156
0.47323  3.621300  0.032709
0.47595  3.607900  0.028230
0.47871  3.595400  0.024784
0.48150  3.583000  0.021997
0.48432  3.570800  0.019297
0.48717  3.558500  0.015925
0.49006  3.545500  0.011896
0.49298  3.532900  0.007634
0.49594  3.520000  0.003550
0.49893  3.505000  0.000811
0.50196  3.491000  0.000000
0.50503  3.479400  0.000000
0.50814  3.467600  0.000000
0.51128  3.455100  0.000000
0.51446  3.444300  0.000000
0.51768  3.434500  0.000000
0.52095  3.423900  0.000000
0.52425  3.413500  0.000000
0.52760  3.404600  0.000000
0.53099  3.396700  0.000000
0.53442  3.387700  0.000000
0.53790  3.378300  0.000000
0.54142  3.369700  0.000000
0.54499  3.360700  0.000000
0.54861  3.351900  0.000000
0.55227  3.343900  0.000000
0.55599  3.336600  0.000000
0.55975  3.330300  0.000000
0.56357  3.322800  0.000000
0.56744  3.314200  0.000000
0.57136  3.307000  0.000000
0.57534  3.301200  0.000000
0.57937  3.294200  0.000000
0.58346  3.286800  0.000000
0.58761  3.280800  0.000000
0.59181  3.274800  0.000000
0.59608  3.268400  0.000000
0.60041  3.261500  0.000000
0.60481  3.254700  0.000000
0.60926  3.248600  0.000000
0.61379  3.242000  0.000000
0.61838  3.235500  0.000000
0.62304  3.229700  0.000000
0.62777  3.224600  0.000000
0.63258  3.219700  0.000000
0.63746  3.214200  0.000000
0.64241  3.208800  0.000000
0.64744  3.203400  0.000000
0.65255  3.198800  0.000000
0.65775  3.194400  0.000000
0.66302  3.189300  0.000000
0.66838  3.183700  0.000000
0.67383  3.177700  0.000000
0.67937  3.172300  0.000000
0.68500  3.168100  0.000000
0.69073  3.164100  0.000000
0.69655  3.158900  0.000000
0.70247  3.154400  0.000000
0.70849  3.151100  0.000000
0.71461  3.146700  0.000000
0.72084  3.141300  0.000000
0.72719  3.137100  0.000000
0.73364  3.133500  0.000000
0.74021  3.128800  0.000000
0.74690  3.124800  0.000000
0.75371  3.121400  0.000000
0.76065  3.116900  0.000000
0.76771  3.112500  0.000000
0.77491  3.108700  0.000000
0.78224  3.105500  0.000000
0.78971  3.102400  0.000000
0.79733  3.098900  0.000000
0.80510  3.095300  0.000000
0.81302  3.091800  0.000000
0.82109  3.088900  0.000000
0.82933  3.085500  0.000000
0.83774  3.081600  0.000000
0.84632  3.078900  0.000000
0.85507  3.076200  0.000000
0.86401  3.073000  0.000000
0.87314  3.069900  0.000000
0.88246  3.066300  0.000000
0.89198  3.062100  0.000000
0.90171  3.059100  0.000000
0.91166  3.057300  0.000000
0.92182  3.054900  0.000000
0.93222  3.052100  0.000000
0.94285  3.049300  0.000000
0.95373  3.046500  0.000000
0.96487  3.043200  0.000000
0.97626  3.040000  0.000000
0.98793  3.037900  0.000000
