; From SOPRA S.A. http://www.sopra-sa.com/indices.htm
; Filename    Symbol               Range (nm)     Description
; ALAS028T    AlAs                275      987    Aluminum Arsenide (Temp: 28 C)
; lambda/um       n         k
0.27583  4.378800  2.512000
0.27675  4.355900  2.467400
0.27768  4.331700  2.429000
0.27862  4.308000  2.394200
0.27956  4.281500  2.366500
0.28051  4.253600  2.348200
0.28146  4.231200  2.333000
0.28243  4.220400  2.315200
0.28339  4.211800  2.301200
0.28437  4.194100  2.295700
0.28535  4.175700  2.293300
0.28634  4.163700  2.291500
0.28734  4.155200  2.293500
0.28834  4.150500  2.301200
0.28935  4.147300  2.313700
0.29036  4.144500  2.328300
0.29139  4.147900  2.341900
0.29242  4.162600  2.352300
0.29346  4.184800  2.362700
0.29450  4.207800  2.375700
0.29555  4.234400  2.387600
0.29662  4.267700  2.399700
0.29768  4.308000  2.414900
0.29876  4.356500  2.428500
0.29984  4.409300  2.434200
0.30093  4.462300  2.430000
0.30203  4.518000  2.417100
0.30314  4.579300  2.397500
0.30426  4.641000  2.373700
0.30538  4.698800  2.345600
0.30651  4.754700  2.311800
0.30766  4.810100  2.274900
0.30880  4.866000  2.235200
0.30996  4.923000  2.191300
0.31113  4.980900  2.142300
0.31231  5.037100  2.085500
0.31349  5.093500  2.020200
0.31468  5.152100  1.946900
0.31589  5.205800  1.866700
0.31710  5.253500  1.776400
0.31832  5.295900  1.672600
0.31955  5.325900  1.562000
0.32079  5.338700  1.450900
0.32204  5.333700  1.342900
0.32330  5.312600  1.240800
0.32457  5.275900  1.145500
0.32585  5.227100  1.060800
0.32714  5.169500  0.989640
0.32844  5.105200  0.931130
0.32975  5.041500  0.880650
0.33107  4.982100  0.835290
0.33240  4.923400  0.798410
0.33374  4.866000  0.767360
0.33510  4.813500  0.736070
0.33646  4.768500  0.704020
0.33783  4.730200  0.671580
0.33922  4.694100  0.640760
0.34062  4.658900  0.613200
0.34203  4.626000  0.588050
0.34345  4.594600  0.564500
0.34488  4.563400  0.543120
0.34633  4.531700  0.524780
0.34778  4.500500  0.507570
0.34925  4.470800  0.489780
0.35074  4.443200  0.472280
0.35223  4.417000  0.455410
0.35374  4.391200  0.439140
0.35526  4.366200  0.424780
0.35679  4.342900  0.412590
0.35834  4.320700  0.400110
0.35990  4.299100  0.386420
0.36147  4.277800  0.373120
0.36306  4.257300  0.360570
0.36466  4.237900  0.347760
0.36628  4.219500  0.334420
0.36791  4.201400  0.321820
0.36955  4.182800  0.310890
0.37121  4.163800  0.300460
0.37289  4.145000  0.288940
0.37458  4.126500  0.276160
0.37628  4.108400  0.262930
0.37800  4.091000  0.249550
0.37974  4.073800  0.237110
0.38149  4.056000  0.226610
0.38326  4.038600  0.216630
0.38505  4.023300  0.206300
0.38685  4.008700  0.195770
0.38867  3.992400  0.184580
0.39050  3.975800  0.172960
0.39236  3.960500  0.161450
0.39423  3.946100  0.150260
0.39612  3.930500  0.139190
0.39803  3.914100  0.127330
0.39995  3.898600  0.114920
0.40190  3.881700  0.102990
0.40386  3.863600  0.091072
0.40584  3.845600  0.079024
0.40785  3.825800  0.067589
0.40987  3.806100  0.057021
0.41191  3.787800  0.047287
0.41397  3.767400  0.038540
0.41606  3.746300  0.031268
0.41816  3.726900  0.024948
0.42029  3.707200  0.018290
0.42244  3.686800  0.010999
0.42461  3.665600  0.004477
0.42680  3.643600  0.000857
0.42901  3.622900  0.000000
0.43125  3.605100  0.000000
0.43351  3.589500  0.000000
0.43580  3.574100  0.000000
0.43811  3.557700  0.000000
0.44044  3.541200  0.000000
0.44280  3.526900  0.000000
0.44519  3.513800  0.000000
0.44760  3.499700  0.000000
0.45004  3.485900  0.000000
0.45250  3.473300  0.000000
0.45499  3.461800  0.000000
0.45751  3.451500  0.000000
0.46006  3.440600  0.000000
0.46263  3.429200  0.000000
0.46524  3.417400  0.000000
0.46787  3.405000  0.000000
0.47053  3.393600  0.000000
0.47323  3.383200  0.000000
0.47595  3.373900  0.000000
0.47871  3.365600  0.000000
0.48150  3.356700  0.000000
0.48432  3.347200  0.000000
0.48717  3.337100  0.000000
0.49006  3.326300  0.000000
0.49298  3.317400  0.000000
0.49594  3.309400  0.000000
0.49893  3.300000  0.000000
0.50196  3.291600  0.000000
0.50503  3.284900  0.000000
0.50814  3.276800  0.000000
0.51128  3.267100  0.000000
0.51446  3.259400  0.000000
0.51768  3.252500  0.000000
0.52095  3.244100  0.000000
0.52425  3.235900  0.000000
0.52760  3.229300  0.000000
0.53099  3.223700  0.000000
0.53442  3.216700  0.000000
0.53790  3.208900  0.000000
0.54142  3.202000  0.000000
0.54499  3.194600  0.000000
0.54861  3.187200  0.000000
0.55227  3.180700  0.000000
0.55599  3.175100  0.000000
0.55975  3.170300  0.000000
0.56357  3.164100  0.000000
0.56744  3.156400  0.000000
0.57136  3.150400  0.000000
0.57534  3.146000  0.000000
0.57937  3.140200  0.000000
0.58346  3.133700  0.000000
0.58761  3.128800  0.000000
0.59181  3.124000  0.000000
0.59608  3.118500  0.000000
0.60041  3.112300  0.000000
0.60481  3.106300  0.000000
0.60926  3.101000  0.000000
0.61379  3.095100  0.000000
0.61838  3.089200  0.000000
0.62304  3.084200  0.000000
0.62777  3.080000  0.000000
0.63258  3.075900  0.000000
0.63746  3.071100  0.000000
0.64241  3.066400  0.000000
0.64744  3.061700  0.000000
0.65255  3.057900  0.000000
0.65775  3.054100  0.000000
0.66302  3.049700  0.000000
0.66838  3.044600  0.000000
0.67383  3.038700  0.000000
0.67937  3.033700  0.000000
0.68500  3.030300  0.000000
0.69073  3.026800  0.000000
0.69655  3.022000  0.000000
0.70247  3.018000  0.000000
0.70849  3.015500  0.000000
0.71461  3.011600  0.000000
0.72084  3.006200  0.000000
0.72719  3.002400  0.000000
0.73364  2.999400  0.000000
0.74021  2.995000  0.000000
0.74690  2.991400  0.000000
0.75371  2.988500  0.000000
0.76065  2.984300  0.000000
0.76771  2.980000  0.000000
0.77491  2.976600  0.000000
0.78224  2.973900  0.000000
0.78971  2.971300  0.000000
0.79733  2.968000  0.000000
0.80510  2.964800  0.000000
0.81302  2.961600  0.000000
0.82109  2.959200  0.000000
0.82933  2.956100  0.000000
0.83774  2.952300  0.000000
0.84632  2.950000  0.000000
0.85507  2.947700  0.000000
0.86401  2.944800  0.000000
0.87314  2.941900  0.000000
0.88246  2.938400  0.000000
0.89198  2.934100  0.000000
0.90171  2.931300  0.000000
0.91166  2.930100  0.000000
0.92182  2.928100  0.000000
0.93222  2.925500  0.000000
0.94285  2.922900  0.000000
0.95373  2.920300  0.000000
0.96487  2.917100  0.000000
0.97626  2.913900  0.000000
0.98793  2.912200  0.000000
