; From SOPRA S.A. http://www.sopra-sa.com/indices.htm
; Filename    Symbol               Range (nm)     Description
; ALAS527T    AlAs                275      987    Aluminum Arsenide (Temp: 527 C)
; lambda/um       n         k
0.27583  4.130400  3.087900
0.27675  4.155200  3.047500
0.27768  4.175700  3.003300
0.27862  4.196200  2.950000
0.27956  4.210700  2.893300
0.28051  4.220200  2.838200
0.28146  4.232300  2.782900
0.28243  4.242800  2.731900
0.28339  4.248700  2.688100
0.28437  4.255200  2.646300
0.28535  4.262900  2.603300
0.28634  4.268100  2.562600
0.28734  4.268600  2.524700
0.28834  4.263700  2.486400
0.28935  4.254600  2.450200
0.29036  4.244600  2.416200
0.29139  4.237600  2.384300
0.29242  4.233600  2.358900
0.29346  4.230400  2.339500
0.29450  4.228800  2.323700
0.29555  4.230900  2.308400
0.29662  4.235900  2.291500
0.29768  4.240100  2.273900
0.29876  4.241800  2.254800
0.29984  4.242100  2.233300
0.30093  4.243000  2.211700
0.30203  4.245500  2.193600
0.30314  4.248000  2.180500
0.30426  4.250000  2.171100
0.30538  4.254500  2.162700
0.30651  4.263600  2.153800
0.30766  4.277300  2.143400
0.30880  4.292900  2.131200
0.30996  4.308100  2.117600
0.31113  4.323800  2.103500
0.31231  4.340500  2.089000
0.31349  4.356900  2.074200
0.31468  4.373100  2.060000
0.31589  4.390700  2.045000
0.31710  4.411000  2.027500
0.31832  4.432800  2.008300
0.31955  4.453000  1.989200
0.32079  4.473100  1.970400
0.32204  4.496400  1.949800
0.32330  4.522900  1.927400
0.32457  4.551200  1.903000
0.32585  4.578000  1.875200
0.32714  4.601000  1.845000
0.32844  4.620600  1.812400
0.32975  4.637500  1.775700
0.33107  4.651400  1.735800
0.33240  4.662100  1.696200
0.33374  4.673600  1.656400
0.33510  4.689100  1.613600
0.33646  4.707500  1.569600
0.33783  4.726700  1.524500
0.33922  4.743200  1.476900
0.34062  4.755100  1.427900
0.34203  4.763300  1.378000
0.34345  4.769400  1.326800
0.34488  4.772600  1.274900
0.34633  4.771600  1.224000
0.34778  4.766200  1.173900
0.34925  4.757600  1.124100
0.35074  4.746700  1.074800
0.35223  4.733000  1.026500
0.35374  4.716800  0.979940
0.35526  4.698600  0.936020
0.35679  4.679500  0.895110
0.35834  4.659900  0.856140
0.35990  4.639200  0.818400
0.36147  4.616700  0.782820
0.36306  4.593000  0.749740
0.36466  4.569300  0.718330
0.36628  4.545500  0.688120
0.36791  4.521700  0.659610
0.36955  4.499100  0.632600
0.37121  4.477600  0.606180
0.37289  4.455700  0.580600
0.37458  4.433400  0.555770
0.37628  4.410600  0.531790
0.37800  4.387600  0.509470
0.37974  4.364700  0.488600
0.38149  4.341500  0.469000
0.38326  4.318400  0.450500
0.38505  4.296300  0.432440
0.38685  4.275200  0.414440
0.38867  4.254700  0.397000
0.39050  4.234700  0.380700
0.39236  4.214900  0.365290
0.39423  4.194900  0.351000
0.39612  4.174900  0.337520
0.39803  4.155400  0.324160
0.39995  4.136100  0.311150
0.40190  4.117200  0.297910
0.40386  4.098800  0.284570
0.40584  4.080800  0.272090
0.40785  4.063100  0.261230
0.40987  4.045900  0.251230
0.41191  4.029000  0.240330
0.41397  4.012100  0.229330
0.41606  3.995800  0.219640
0.41816  3.980100  0.210720
0.42029  3.964100  0.202000
0.42244  3.947600  0.192620
0.42461  3.930800  0.182210
0.42680  3.915100  0.172260
0.42901  3.901600  0.163040
0.43125  3.889700  0.153600
0.43351  3.877300  0.144090
0.43580  3.860700  0.135230
0.43811  3.840000  0.127420
0.44044  3.820000  0.120780
0.44280  3.803600  0.115330
0.44519  3.789000  0.110710
0.44760  3.774600  0.106120
0.45004  3.761000  0.100550
0.45250  3.747700  0.093983
0.45499  3.734200  0.087533
0.45751  3.721100  0.082186
0.46006  3.708100  0.077873
0.46263  3.695700  0.073663
0.46524  3.683400  0.068594
0.46787  3.670700  0.062655
0.47053  3.658000  0.055773
0.47323  3.644500  0.048853
0.47595  3.631100  0.043536
0.47871  3.618900  0.038630
0.48150  3.606100  0.033520
0.48432  3.592300  0.029125
0.48717  3.578300  0.025538
0.49006  3.564300  0.022209
0.49298  3.551900  0.018477
0.49594  3.540000  0.014736
0.49893  3.526800  0.011250
0.50196  3.514200  0.007592
0.50503  3.502100  0.003726
0.50814  3.487900  0.000893
0.51128  3.472700  0.000000
0.51446  3.459800  0.000000
0.51768  3.448600  0.000000
0.52095  3.436800  0.000000
0.52425  3.425400  0.000000
0.52760  3.415500  0.000000
0.53099  3.406700  0.000000
0.53442  3.396900  0.000000
0.53790  3.386800  0.000000
0.54142  3.377500  0.000000
0.54499  3.367900  0.000000
0.54861  3.358500  0.000000
0.55227  3.350000  0.000000
0.55599  3.342200  0.000000
0.55975  3.335200  0.000000
0.56357  3.327100  0.000000
0.56744  3.318000  0.000000
0.57136  3.310300  0.000000
0.57534  3.304000  0.000000
0.57937  3.296600  0.000000
0.58346  3.288800  0.000000
0.58761  3.282200  0.000000
0.59181  3.275800  0.000000
0.59608  3.268900  0.000000
0.60041  3.261700  0.000000
0.60481  3.254500  0.000000
0.60926  3.248000  0.000000
0.61379  3.241100  0.000000
0.61838  3.234300  0.000000
0.62304  3.228200  0.000000
0.62777  3.222700  0.000000
0.63258  3.217400  0.000000
0.63746  3.211500  0.000000
0.64241  3.205800  0.000000
0.64744  3.200200  0.000000
0.65255  3.195300  0.000000
0.65775  3.190400  0.000000
0.66302  3.185000  0.000000
0.66838  3.179200  0.000000
0.67383  3.172800  0.000000
0.67937  3.167200  0.000000
0.68500  3.162700  0.000000
0.69073  3.158300  0.000000
0.69655  3.152900  0.000000
0.70247  3.148100  0.000000
0.70849  3.144600  0.000000
0.71461  3.140000  0.000000
0.72084  3.134300  0.000000
0.72719  3.129800  0.000000
0.73364  3.126000  0.000000
0.74021  3.121000  0.000000
0.74690  3.116800  0.000000
0.75371  3.113100  0.000000
0.76065  3.108400  0.000000
0.76771  3.103700  0.000000
0.77491  3.099700  0.000000
0.78224  3.096300  0.000000
0.78971  3.093000  0.000000
0.79733  3.089100  0.000000
0.80510  3.085400  0.000000
0.81302  3.081700  0.000000
0.82109  3.078600  0.000000
0.82933  3.075000  0.000000
0.83774  3.070900  0.000000
0.84632  3.068000  0.000000
0.85507  3.065100  0.000000
0.86401  3.061700  0.000000
0.87314  3.058400  0.000000
0.88246  3.054500  0.000000
0.89198  3.050200  0.000000
0.90171  3.047000  0.000000
0.91166  3.045000  0.000000
0.92182  3.042500  0.000000
0.93222  3.039400  0.000000
0.94285  3.036500  0.000000
0.95373  3.033500  0.000000
0.96487  3.030100  0.000000
0.97626  3.026700  0.000000
0.98793  3.024500  0.000000
