; From SOPRA S.A. http://www.sopra-sa.com/indices.htm
; Filename    Symbol               Range (nm)     Description
; ALAS445T    AlAs                275      987    Aluminum Arsenide (Temp: 445 C)
; lambda/um       n         k
0.27583  4.207700  3.015400
0.27675  4.223200  2.964900
0.27768  4.234300  2.911600
0.27862  4.239600  2.860300
0.27956  4.241400  2.811800
0.28051  4.242200  2.762700
0.28146  4.244100  2.715400
0.28243  4.253100  2.668900
0.28339  4.266800  2.623400
0.28437  4.279500  2.580300
0.28535  4.286700  2.539100
0.28634  4.287800  2.503100
0.28734  4.284400  2.473200
0.28834  4.277100  2.447100
0.28935  4.270400  2.423200
0.29036  4.267800  2.401100
0.29139  4.266000  2.379700
0.29242  4.263600  2.355400
0.29346  4.260400  2.329100
0.29450  4.254200  2.304900
0.29555  4.248000  2.283900
0.29662  4.243900  2.267800
0.29768  4.240900  2.256300
0.29876  4.240400  2.247500
0.29984  4.241600  2.239400
0.30093  4.242800  2.228800
0.30203  4.247700  2.217100
0.30314  4.257800  2.206200
0.30426  4.268900  2.196400
0.30538  4.281300  2.188800
0.30651  4.298000  2.181200
0.30766  4.316600  2.173700
0.30880  4.334200  2.166500
0.30996  4.351500  2.157300
0.31113  4.369400  2.145100
0.31231  4.387800  2.129000
0.31349  4.408600  2.109600
0.31468  4.433500  2.091000
0.31589  4.462200  2.072900
0.31710  4.493800  2.053000
0.31832  4.526200  2.031600
0.31955  4.557700  2.009400
0.32079  4.587000  1.986500
0.32204  4.614300  1.961800
0.32330  4.642900  1.933700
0.32457  4.671700  1.900100
0.32585  4.696500  1.862100
0.32714  4.717600  1.822400
0.32844  4.736500  1.779700
0.32975  4.752900  1.733700
0.33107  4.767700  1.686200
0.33240  4.782000  1.637200
0.33374  4.793800  1.586400
0.33510  4.803900  1.533700
0.33646  4.816200  1.479800
0.33783  4.828200  1.424800
0.33922  4.834900  1.368300
0.34062  4.837100  1.310900
0.34203  4.836000  1.253600
0.34345  4.830800  1.196800
0.34488  4.821500  1.141500
0.34633  4.808500  1.088700
0.34778  4.792400  1.037900
0.34925  4.773700  0.988860
0.35074  4.752400  0.942490
0.35223  4.728700  0.899060
0.35374  4.704000  0.857700
0.35526  4.679000  0.818450
0.35679  4.654200  0.781830
0.35834  4.629300  0.747750
0.35990  4.602600  0.716690
0.36147  4.575100  0.688490
0.36306  4.548800  0.661960
0.36466  4.524100  0.635350
0.36628  4.500200  0.608200
0.36791  4.476300  0.581910
0.36955  4.452300  0.557040
0.37121  4.428800  0.533480
0.37289  4.406100  0.511280
0.37458  4.383300  0.490630
0.37628  4.359500  0.471800
0.37800  4.335700  0.454860
0.37974  4.312500  0.439090
0.38149  4.289900  0.422820
0.38326  4.268500  0.406370
0.38505  4.247700  0.391160
0.38685  4.227100  0.376530
0.38867  4.206900  0.361650
0.39050  4.187000  0.346540
0.39236  4.167600  0.331560
0.39423  4.148900  0.317130
0.39612  4.130400  0.303750
0.39803  4.111400  0.291380
0.39995  4.092600  0.279290
0.40190  4.074600  0.267660
0.40386  4.056700  0.256140
0.40584  4.039000  0.243980
0.40785  4.021500  0.231820
0.40987  4.004400  0.220100
0.41191  3.988700  0.209380
0.41397  3.974300  0.200140
0.41606  3.959700  0.191350
0.41816  3.943700  0.182770
0.42029  3.926300  0.174940
0.42244  3.908700  0.166940
0.42461  3.893100  0.158040
0.42680  3.880700  0.148880
0.42901  3.869200  0.139920
0.43125  3.856500  0.130820
0.43351  3.842500  0.121860
0.43580  3.827400  0.113770
0.43811  3.811200  0.106600
0.44044  3.795000  0.099890
0.44280  3.780800  0.093016
0.44519  3.767700  0.085633
0.44760  3.752900  0.077407
0.45004  3.736900  0.069096
0.45250  3.720600  0.061932
0.45499  3.704800  0.056001
0.45751  3.690000  0.051500
0.46006  3.675700  0.047979
0.46263  3.661600  0.044176
0.46524  3.647400  0.040330
0.46787  3.633100  0.036622
0.47053  3.619600  0.032156
0.47323  3.606300  0.027605
0.47595  3.593700  0.023803
0.47871  3.582200  0.020014
0.48150  3.570000  0.015933
0.48432  3.557000  0.011820
0.48717  3.542900  0.007777
0.49006  3.527600  0.003860
0.49298  3.512800  0.000967
0.49594  3.498900  0.000000
0.49893  3.484900  0.000000
0.50196  3.472600  0.000000
0.50503  3.462200  0.000000
0.50814  3.451000  0.000000
0.51128  3.438900  0.000000
0.51446  3.428400  0.000000
0.51768  3.418900  0.000000
0.52095  3.408300  0.000000
0.52425  3.398100  0.000000
0.52760  3.389500  0.000000
0.53099  3.381700  0.000000
0.53442  3.372800  0.000000
0.53790  3.363500  0.000000
0.54142  3.354900  0.000000
0.54499  3.346000  0.000000
0.54861  3.337200  0.000000
0.55227  3.329300  0.000000
0.55599  3.322100  0.000000
0.55975  3.315800  0.000000
0.56357  3.308400  0.000000
0.56744  3.299700  0.000000
0.57136  3.292500  0.000000
0.57534  3.286800  0.000000
0.57937  3.279800  0.000000
0.58346  3.272400  0.000000
0.58761  3.266400  0.000000
0.59181  3.260500  0.000000
0.59608  3.254100  0.000000
0.60041  3.247200  0.000000
0.60481  3.240300  0.000000
0.60926  3.234200  0.000000
0.61379  3.227600  0.000000
0.61838  3.221100  0.000000
0.62304  3.215300  0.000000
0.62777  3.210200  0.000000
0.63258  3.205300  0.000000
0.63746  3.199700  0.000000
0.64241  3.194400  0.000000
0.64744  3.189100  0.000000
0.65255  3.184500  0.000000
0.65775  3.179900  0.000000
0.66302  3.174900  0.000000
0.66838  3.169300  0.000000
0.67383  3.163100  0.000000
0.67937  3.157600  0.000000
0.68500  3.153500  0.000000
0.69073  3.149500  0.000000
0.69655  3.144200  0.000000
0.70247  3.139700  0.000000
0.70849  3.136500  0.000000
0.71461  3.132100  0.000000
0.72084  3.126500  0.000000
0.72719  3.122300  0.000000
0.73364  3.118800  0.000000
0.74021  3.114000  0.000000
0.74690  3.110000  0.000000
0.75371  3.106600  0.000000
0.76065  3.102100  0.000000
0.76771  3.097600  0.000000
0.77491  3.093800  0.000000
0.78224  3.090700  0.000000
0.78971  3.087600  0.000000
0.79733  3.084000  0.000000
0.80510  3.080400  0.000000
0.81302  3.076800  0.000000
0.82109  3.074000  0.000000
0.82933  3.070500  0.000000
0.83774  3.066600  0.000000
0.84632  3.063900  0.000000
0.85507  3.061200  0.000000
0.86401  3.058000  0.000000
0.87314  3.054800  0.000000
0.88246  3.051100  0.000000
0.89198  3.046800  0.000000
0.90171  3.043800  0.000000
0.91166  3.042100  0.000000
0.92182  3.039800  0.000000
0.93222  3.036900  0.000000
0.94285  3.034000  0.000000
0.95373  3.031300  0.000000
0.96487  3.027900  0.000000
0.97626  3.024600  0.000000
0.98793  3.022600  0.000000
