; From SOPRA S.A. http://www.sopra-sa.com/indices.htm
; Filename    Symbol               Range (nm)     Description
; ALAS178T    AlAs                275      987    Aluminum Arsenide (Temp: 178 C)
; lambda/um       n         k
0.27583  4.398000  2.745300
0.27675  4.383300  2.688400
0.27768  4.374300  2.632500
0.27862  4.370700  2.579500
0.27956  4.362400  2.531100
0.28051  4.345300  2.487400
0.28146  4.327300  2.448900
0.28243  4.308000  2.416700
0.28339  4.288400  2.388500
0.28437  4.273200  2.364200
0.28535  4.261300  2.347900
0.28634  4.253300  2.336700
0.28734  4.246800  2.326800
0.28834  4.237800  2.317900
0.28935  4.227200  2.311700
0.29036  4.218800  2.306800
0.29139  4.214400  2.300000
0.29242  4.212200  2.294600
0.29346  4.214100  2.293300
0.29450  4.222200  2.292300
0.29555  4.234600  2.290900
0.29662  4.249500  2.290600
0.29768  4.265800  2.291000
0.29876  4.283900  2.292900
0.29984  4.306100  2.297200
0.30093  4.334000  2.301900
0.30203  4.366300  2.304400
0.30314  4.400800  2.304800
0.30426  4.437300  2.302400
0.30538  4.476000  2.294700
0.30651  4.517200  2.282000
0.30766  4.560300  2.263900
0.30880  4.604500  2.239700
0.30996  4.648700  2.211900
0.31113  4.692500  2.181000
0.31231  4.737600  2.145800
0.31349  4.782800  2.108200
0.31468  4.826800  2.069500
0.31589  4.870800  2.028200
0.31710  4.916300  1.981800
0.31832  4.964200  1.930200
0.31955  5.012900  1.873800
0.32079  5.057100  1.809700
0.32204  5.092800  1.738200
0.32330  5.124200  1.659600
0.32457  5.155000  1.574300
0.32585  5.174600  1.488700
0.32714  5.175400  1.406500
0.32844  5.159600  1.327600
0.32975  5.132100  1.251900
0.33107  5.097500  1.180600
0.33240  5.056700  1.115300
0.33374  5.010900  1.052800
0.33510  4.963600  0.992510
0.33646  4.923200  0.935480
0.33783  4.891300  0.881970
0.33922  4.858200  0.833190
0.34062  4.821600  0.788730
0.34203  4.784400  0.748150
0.34345  4.747700  0.711010
0.34488  4.712600  0.677250
0.34633  4.678500  0.647100
0.34778  4.645300  0.618920
0.34925  4.612800  0.592330
0.35074  4.580100  0.568640
0.35223  4.547600  0.547480
0.35374  4.516700  0.527380
0.35526  4.488000  0.508010
0.35679  4.460500  0.489830
0.35834  4.434200  0.472840
0.35990  4.409200  0.457100
0.36147  4.385400  0.442000
0.36306  4.363000  0.425870
0.36466  4.340800  0.409290
0.36628  4.317800  0.393900
0.36791  4.294500  0.379220
0.36955  4.272100  0.364750
0.37121  4.251100  0.350970
0.37289  4.230800  0.337970
0.37458  4.210900  0.325040
0.37628  4.191600  0.313190
0.37800  4.172300  0.302770
0.37974  4.154400  0.290840
0.38149  4.138400  0.277660
0.38326  4.121500  0.265110
0.38505  4.104500  0.253280
0.38685  4.088600  0.242590
0.38867  4.072500  0.230700
0.39050  4.055400  0.216400
0.39236  4.037900  0.202840
0.39423  4.020900  0.191020
0.39612  4.002600  0.179920
0.39803  3.984100  0.169640
0.39995  3.967700  0.159340
0.40190  3.950200  0.148490
0.40386  3.931500  0.138450
0.40584  3.914000  0.129360
0.40785  3.896200  0.120270
0.40987  3.879200  0.111240
0.41191  3.863800  0.102260
0.41397  3.846600  0.093636
0.41606  3.828600  0.085676
0.41816  3.811600  0.077887
0.42029  3.793800  0.070470
0.42244  3.776100  0.063606
0.42461  3.759700  0.057184
0.42680  3.743600  0.050497
0.42901  3.726900  0.043648
0.43125  3.710700  0.038061
0.43351  3.696100  0.033292
0.43580  3.681300  0.028150
0.43811  3.664800  0.022899
0.44044  3.647400  0.018078
0.44280  3.631800  0.013252
0.44519  3.616400  0.008069
0.44760  3.598400  0.003439
0.45004  3.579800  0.000722
0.45250  3.562800  0.000000
0.45499  3.548200  0.000000
0.45751  3.535400  0.000000
0.46006  3.522500  0.000000
0.46263  3.509400  0.000000
0.46524  3.495900  0.000000
0.46787  3.482100  0.000000
0.47053  3.469500  0.000000
0.47323  3.458100  0.000000
0.47595  3.447800  0.000000
0.47871  3.438500  0.000000
0.48150  3.428600  0.000000
0.48432  3.418300  0.000000
0.48717  3.407500  0.000000
0.49006  3.396100  0.000000
0.49298  3.386500  0.000000
0.49594  3.377800  0.000000
0.49893  3.367800  0.000000
0.50196  3.358800  0.000000
0.50503  3.351600  0.000000
0.50814  3.343000  0.000000
0.51128  3.333000  0.000000
0.51446  3.324700  0.000000
0.51768  3.317300  0.000000
0.52095  3.308600  0.000000
0.52425  3.300000  0.000000
0.52760  3.293100  0.000000
0.53099  3.287100  0.000000
0.53442  3.279700  0.000000
0.53790  3.271700  0.000000
0.54142  3.264500  0.000000
0.54499  3.256800  0.000000
0.54861  3.249200  0.000000
0.55227  3.242400  0.000000
0.55599  3.236500  0.000000
0.55975  3.231500  0.000000
0.56357  3.225000  0.000000
0.56744  3.217100  0.000000
0.57136  3.210900  0.000000
0.57534  3.206300  0.000000
0.57937  3.200400  0.000000
0.58346  3.193700  0.000000
0.58761  3.188600  0.000000
0.59181  3.183600  0.000000
0.59608  3.177900  0.000000
0.60041  3.171700  0.000000
0.60481  3.165500  0.000000
0.60926  3.160100  0.000000
0.61379  3.154100  0.000000
0.61838  3.148100  0.000000
0.62304  3.143000  0.000000
0.62777  3.138700  0.000000
0.63258  3.134400  0.000000
0.63746  3.129600  0.000000
0.64241  3.124700  0.000000
0.64744  3.120000  0.000000
0.65255  3.116100  0.000000
0.65775  3.112200  0.000000
0.66302  3.107700  0.000000
0.66838  3.102400  0.000000
0.67383  3.096600  0.000000
0.67937  3.091500  0.000000
0.68500  3.087900  0.000000
0.69073  3.084500  0.000000
0.69655  3.079600  0.000000
0.70247  3.075600  0.000000
0.70849  3.073000  0.000000
0.71461  3.069000  0.000000
0.72084  3.063600  0.000000
0.72719  3.059800  0.000000
0.73364  3.056700  0.000000
0.74021  3.052200  0.000000
0.74690  3.048500  0.000000
0.75371  3.045700  0.000000
0.76065  3.041300  0.000000
0.76771  3.037100  0.000000
0.77491  3.033600  0.000000
0.78224  3.030900  0.000000
0.78971  3.028300  0.000000
0.79733  3.025000  0.000000
0.80510  3.021700  0.000000
0.81302  3.018500  0.000000
0.82109  3.016000  0.000000
0.82933  3.012900  0.000000
0.83774  3.009100  0.000000
0.84632  3.006800  0.000000
0.85507  3.004500  0.000000
0.86401  3.001500  0.000000
0.87314  2.998600  0.000000
0.88246  2.995100  0.000000
0.89198  2.990800  0.000000
0.90171  2.988100  0.000000
0.91166  2.986800  0.000000
0.92182  2.984800  0.000000
0.93222  2.982100  0.000000
0.94285  2.979500  0.000000
0.95373  2.977000  0.000000
0.96487  2.973800  0.000000
0.97626  2.970600  0.000000
0.98793  2.968800  0.000000
