; From SOPRA S.A. http://www.sopra-sa.com/indices.htm
; Filename    Symbol               Range (nm)     Description
; ALAS228T    AlAs                275      987    Aluminum Arsenide (Temp: 228 C)
; lambda/um       n         k
0.27583  4.371000  2.786700
0.27675  4.373900  2.731400
0.27768  4.376800  2.677900
0.27862  4.374800  2.628400
0.27956  4.366000  2.581900
0.28051  4.355100  2.539700
0.28146  4.343500  2.504600
0.28243  4.327900  2.472000
0.28339  4.309200  2.439600
0.28437  4.292100  2.406600
0.28535  4.275800  2.376800
0.28634  4.259700  2.356000
0.28734  4.247800  2.339800
0.28834  4.238600  2.323900
0.28935  4.231800  2.309900
0.29036  4.230400  2.301400
0.29139  4.232500  2.296700
0.29242  4.236400  2.289100
0.29346  4.239600  2.278800
0.29450  4.241700  2.270500
0.29555  4.246300  2.266900
0.29662  4.253100  2.266700
0.29768  4.262700  2.265800
0.29876  4.275200  2.265200
0.29984  4.290200  2.265600
0.30093  4.309600  2.265000
0.30203  4.331300  2.262200
0.30314  4.353300  2.257300
0.30426  4.378800  2.252200
0.30538  4.411500  2.247300
0.30651  4.449000  2.241000
0.30766  4.486500  2.232900
0.30880  4.525200  2.220600
0.30996  4.564700  2.202500
0.31113  4.605500  2.179700
0.31231  4.650300  2.152600
0.31349  4.695000  2.121100
0.31468  4.738600  2.086000
0.31589  4.782800  2.049000
0.31710  4.828100  2.009300
0.31832  4.873400  1.964900
0.31955  4.914100  1.917900
0.32079  4.950700  1.865900
0.32204  4.985600  1.808100
0.32330  5.019000  1.747900
0.32457  5.050100  1.682200
0.32585  5.072400  1.611300
0.32714  5.082200  1.538600
0.32844  5.080500  1.464800
0.32975  5.070300  1.388600
0.33107  5.054800  1.311500
0.33240  5.032300  1.237200
0.33374  5.004700  1.166100
0.33510  4.976900  1.099100
0.33646  4.949900  1.036600
0.33783  4.922100  0.976360
0.33922  4.890600  0.920620
0.34062  4.856100  0.870940
0.34203  4.821200  0.825980
0.34345  4.786600  0.784610
0.34488  4.753700  0.746430
0.34633  4.721300  0.712050
0.34778  4.687800  0.681050
0.34925  4.654800  0.652370
0.35074  4.623800  0.625190
0.35223  4.593400  0.598940
0.35374  4.562700  0.573830
0.35526  4.532800  0.550540
0.35679  4.504100  0.529050
0.35834  4.476500  0.508860
0.35990  4.450000  0.490140
0.36147  4.424300  0.472580
0.36306  4.399100  0.455040
0.36466  4.374400  0.437920
0.36628  4.349900  0.421930
0.36791  4.326100  0.406650
0.36955  4.302800  0.391760
0.37121  4.280100  0.377340
0.37289  4.258300  0.363490
0.37458  4.237300  0.350780
0.37628  4.217200  0.338870
0.37800  4.197900  0.325990
0.37974  4.178900  0.312290
0.38149  4.159400  0.299250
0.38326  4.140000  0.286640
0.38505  4.121500  0.274170
0.38685  4.103600  0.261250
0.38867  4.086000  0.247450
0.39050  4.068600  0.233820
0.39236  4.051700  0.222140
0.39423  4.035300  0.212200
0.39612  4.019200  0.201790
0.39803  4.003700  0.191090
0.39995  3.988400  0.180050
0.40190  3.970300  0.168810
0.40386  3.950900  0.159250
0.40584  3.932800  0.150920
0.40785  3.914900  0.142980
0.40987  3.898500  0.135170
0.41191  3.884100  0.127210
0.41397  3.868500  0.119380
0.41606  3.852500  0.111550
0.41816  3.837500  0.103260
0.42029  3.821600  0.094566
0.42244  3.805200  0.085852
0.42461  3.789400  0.077528
0.42680  3.773500  0.069235
0.42901  3.756900  0.060831
0.43125  3.740300  0.053553
0.43351  3.725000  0.048250
0.43580  3.710500  0.042968
0.43811  3.694500  0.036259
0.44044  3.677000  0.029984
0.44280  3.660900  0.024350
0.44519  3.645500  0.018923
0.44760  3.628500  0.014169
0.45004  3.611700  0.009414
0.45250  3.594900  0.004593
0.45499  3.578000  0.001131
0.45751  3.562100  0.000000
0.46006  3.547100  0.000000
0.46263  3.532500  0.000000
0.46524  3.517900  0.000000
0.46787  3.503200  0.000000
0.47053  3.489800  0.000000
0.47323  3.477500  0.000000
0.47595  3.466400  0.000000
0.47871  3.456400  0.000000
0.48150  3.446000  0.000000
0.48432  3.435100  0.000000
0.48717  3.423800  0.000000
0.49006  3.411900  0.000000
0.49298  3.401800  0.000000
0.49594  3.392800  0.000000
0.49893  3.382400  0.000000
0.50196  3.373000  0.000000
0.50503  3.365300  0.000000
0.50814  3.356200  0.000000
0.51128  3.345900  0.000000
0.51446  3.337300  0.000000
0.51768  3.329600  0.000000
0.52095  3.320600  0.000000
0.52425  3.311700  0.000000
0.52760  3.304400  0.000000
0.53099  3.298100  0.000000
0.53442  3.290400  0.000000
0.53790  3.282100  0.000000
0.54142  3.274700  0.000000
0.54499  3.266700  0.000000
0.54861  3.258800  0.000000
0.55227  3.251800  0.000000
0.55599  3.245700  0.000000
0.55975  3.240400  0.000000
0.56357  3.233800  0.000000
0.56744  3.225700  0.000000
0.57136  3.219200  0.000000
0.57534  3.214400  0.000000
0.57937  3.208200  0.000000
0.58346  3.201300  0.000000
0.58761  3.196100  0.000000
0.59181  3.190900  0.000000
0.59608  3.185100  0.000000
0.60041  3.178600  0.000000
0.60481  3.172300  0.000000
0.60926  3.166700  0.000000
0.61379  3.160500  0.000000
0.61838  3.154400  0.000000
0.62304  3.149100  0.000000
0.62777  3.144600  0.000000
0.63258  3.140200  0.000000
0.63746  3.135200  0.000000
0.64241  3.130200  0.000000
0.64744  3.125300  0.000000
0.65255  3.121200  0.000000
0.65775  3.117200  0.000000
0.66302  3.112500  0.000000
0.66838  3.107200  0.000000
0.67383  3.101200  0.000000
0.67937  3.096000  0.000000
0.68500  3.092300  0.000000
0.69073  3.088700  0.000000
0.69655  3.083700  0.000000
0.70247  3.079500  0.000000
0.70849  3.076800  0.000000
0.71461  3.072700  0.000000
0.72084  3.067200  0.000000
0.72719  3.063300  0.000000
0.73364  3.060100  0.000000
0.74021  3.055500  0.000000
0.74690  3.051700  0.000000
0.75371  3.048700  0.000000
0.76065  3.044300  0.000000
0.76771  3.040000  0.000000
0.77491  3.036400  0.000000
0.78224  3.033600  0.000000
0.78971  3.030800  0.000000
0.79733  3.027400  0.000000
0.80510  3.024100  0.000000
0.81302  3.020800  0.000000
0.82109  3.018200  0.000000
0.82933  3.015000  0.000000
0.83774  3.011100  0.000000
0.84632  3.008700  0.000000
0.85507  3.006300  0.000000
0.86401  3.003200  0.000000
0.87314  3.000300  0.000000
0.88246  2.996600  0.000000
0.89198  2.992300  0.000000
0.90171  2.989500  0.000000
0.91166  2.988100  0.000000
0.92182  2.986000  0.000000
0.93222  2.983300  0.000000
0.94285  2.980600  0.000000
0.95373  2.978000  0.000000
0.96487  2.974600  0.000000
0.97626  2.971400  0.000000
0.98793  2.969600  0.000000
