; From SOPRA S.A. http://www.sopra-sa.com/indices.htm
; Filename    Symbol               Range (nm)     Description
; ALAS204T    AlAs                275      987    Aluminum Arsenide (Temp: 204 C)
; lambda/um       n         k
0.27583  4.368900  2.743700
0.27675  4.361900  2.694800
0.27768  4.353800  2.644400
0.27862  4.349500  2.588600
0.27956  4.346300  2.535600
0.28051  4.341500  2.491800
0.28146  4.331800  2.455900
0.28243  4.318300  2.426400
0.28339  4.303100  2.401100
0.28437  4.288400  2.377900
0.28535  4.275300  2.359200
0.28634  4.258900  2.348600
0.28734  4.241600  2.339800
0.28834  4.228600  2.329000
0.28935  4.221300  2.319600
0.29036  4.218600  2.311000
0.29139  4.218100  2.303000
0.29242  4.219300  2.296400
0.29346  4.222600  2.290400
0.29450  4.230300  2.284800
0.29555  4.241700  2.279900
0.29662  4.253800  2.275900
0.29768  4.266900  2.273800
0.29876  4.280400  2.273300
0.29984  4.296500  2.271700
0.30093  4.318400  2.268300
0.30203  4.344300  2.265700
0.30314  4.372000  2.263800
0.30426  4.403600  2.261700
0.30538  4.440400  2.257700
0.30651  4.480800  2.248200
0.30766  4.521900  2.234400
0.30880  4.564000  2.218100
0.30996  4.607800  2.197600
0.31113  4.652600  2.172600
0.31231  4.698300  2.142300
0.31349  4.743800  2.107000
0.31468  4.786900  2.069300
0.31589  4.826300  2.030700
0.31710  4.863600  1.988600
0.31832  4.901800  1.939000
0.31955  4.942500  1.885200
0.32079  4.985500  1.829000
0.32204  5.029900  1.766600
0.32330  5.074100  1.697300
0.32457  5.111400  1.624900
0.32585  5.134100  1.551700
0.32714  5.139800  1.478200
0.32844  5.129100  1.403800
0.32975  5.104600  1.327900
0.33107  5.071500  1.252400
0.33240  5.034700  1.181300
0.33374  4.996900  1.113900
0.33510  4.962800  1.048100
0.33646  4.934600  0.985600
0.33783  4.905200  0.929040
0.33922  4.870800  0.878080
0.34062  4.835000  0.831080
0.34203  4.799800  0.787130
0.34345  4.765000  0.745550
0.34488  4.730700  0.707150
0.34633  4.696400  0.673160
0.34778  4.662400  0.643370
0.34925  4.630100  0.617250
0.35074  4.599600  0.593400
0.35223  4.570300  0.569820
0.35374  4.541000  0.547280
0.35526  4.511600  0.527390
0.35679  4.483500  0.509200
0.35834  4.457300  0.490810
0.35990  4.431700  0.472510
0.36147  4.405400  0.455310
0.36306  4.379600  0.439160
0.36466  4.355100  0.423970
0.36628  4.331100  0.408990
0.36791  4.308300  0.392850
0.36955  4.286600  0.376140
0.37121  4.264900  0.361080
0.37289  4.243500  0.348080
0.37458  4.222900  0.336300
0.37628  4.202800  0.324650
0.37800  4.182400  0.312160
0.37974  4.162000  0.299750
0.38149  4.142400  0.288150
0.38326  4.123300  0.276610
0.38505  4.105500  0.265230
0.38685  4.089000  0.254430
0.38867  4.072200  0.242390
0.39050  4.054900  0.229000
0.39236  4.038200  0.216620
0.39423  4.022000  0.204020
0.39612  4.005100  0.189530
0.39803  3.986900  0.175110
0.39995  3.967400  0.162620
0.40190  3.947700  0.151180
0.40386  3.930200  0.139450
0.40584  3.916800  0.128090
0.40785  3.904200  0.117950
0.40987  3.888600  0.108660
0.41191  3.871400  0.099949
0.41397  3.852600  0.091933
0.41606  3.833100  0.084579
0.41816  3.814800  0.078061
0.42029  3.796200  0.072374
0.42244  3.778400  0.067020
0.42461  3.762100  0.061983
0.42680  3.746700  0.056963
0.42901  3.731400  0.050700
0.43125  3.716000  0.044886
0.43351  3.702200  0.040624
0.43580  3.688500  0.035146
0.43811  3.672500  0.028900
0.44044  3.655100  0.023909
0.44280  3.639800  0.019349
0.44519  3.625500  0.014336
0.44760  3.609000  0.009090
0.45004  3.591400  0.004207
0.45250  3.573900  0.000970
0.45499  3.557600  0.000000
0.45751  3.543600  0.000000
0.46006  3.530100  0.000000
0.46263  3.516400  0.000000
0.46524  3.502600  0.000000
0.46787  3.488500  0.000000
0.47053  3.475500  0.000000
0.47323  3.463800  0.000000
0.47595  3.453100  0.000000
0.47871  3.443600  0.000000
0.48150  3.433600  0.000000
0.48432  3.423100  0.000000
0.48717  3.412100  0.000000
0.49006  3.400500  0.000000
0.49298  3.390700  0.000000
0.49594  3.382000  0.000000
0.49893  3.371900  0.000000
0.50196  3.362700  0.000000
0.50503  3.355200  0.000000
0.50814  3.346500  0.000000
0.51128  3.336400  0.000000
0.51446  3.328000  0.000000
0.51768  3.320500  0.000000
0.52095  3.311700  0.000000
0.52425  3.302900  0.000000
0.52760  3.295900  0.000000
0.53099  3.289800  0.000000
0.53442  3.282300  0.000000
0.53790  3.274200  0.000000
0.54142  3.267000  0.000000
0.54499  3.259200  0.000000
0.54861  3.251400  0.000000
0.55227  3.244500  0.000000
0.55599  3.238500  0.000000
0.55975  3.233400  0.000000
0.56357  3.226900  0.000000
0.56744  3.219000  0.000000
0.57136  3.212700  0.000000
0.57534  3.208000  0.000000
0.57937  3.202000  0.000000
0.58346  3.195200  0.000000
0.58761  3.190100  0.000000
0.59181  3.185000  0.000000
0.59608  3.179300  0.000000
0.60041  3.172900  0.000000
0.60481  3.166600  0.000000
0.60926  3.161200  0.000000
0.61379  3.155100  0.000000
0.61838  3.149100  0.000000
0.62304  3.143900  0.000000
0.62777  3.139500  0.000000
0.63258  3.135300  0.000000
0.63746  3.130300  0.000000
0.64241  3.125400  0.000000
0.64744  3.120600  0.000000
0.65255  3.116600  0.000000
0.65775  3.112700  0.000000
0.66302  3.108100  0.000000
0.66838  3.102800  0.000000
0.67383  3.096900  0.000000
0.67937  3.091800  0.000000
0.68500  3.088200  0.000000
0.69073  3.084700  0.000000
0.69655  3.079800  0.000000
0.70247  3.075600  0.000000
0.70849  3.073000  0.000000
0.71461  3.069000  0.000000
0.72084  3.063600  0.000000
0.72719  3.059700  0.000000
0.73364  3.056600  0.000000
0.74021  3.052100  0.000000
0.74690  3.048400  0.000000
0.75371  3.045400  0.000000
0.76065  3.041000  0.000000
0.76771  3.036800  0.000000
0.77491  3.033300  0.000000
0.78224  3.030600  0.000000
0.78971  3.027900  0.000000
0.79733  3.024500  0.000000
0.80510  3.021200  0.000000
0.81302  3.017900  0.000000
0.82109  3.015400  0.000000
0.82933  3.012300  0.000000
0.83774  3.008500  0.000000
0.84632  3.006100  0.000000
0.85507  3.003800  0.000000
0.86401  3.000800  0.000000
0.87314  2.997800  0.000000
0.88246  2.994200  0.000000
0.89198  2.990000  0.000000
0.90171  2.987200  0.000000
0.91166  2.985900  0.000000
0.92182  2.983900  0.000000
0.93222  2.981200  0.000000
0.94285  2.978500  0.000000
0.95373  2.975900  0.000000
0.96487  2.972700  0.000000
0.97626  2.969500  0.000000
0.98793  2.967700  0.000000
