; From SOPRA S.A. http://www.sopra-sa.com/indices.htm
; Filename    Symbol               Range (nm)     Description
; ALAS499T    AlAs                275      987    Aluminum Arsenide (Temp: 499 C)
; lambda/um       n         k
0.27583  4.163600  3.043600
0.27675  4.200000  2.989000
0.27768  4.219300  2.940400
0.27862  4.228600  2.900900
0.27956  4.241700  2.860300
0.28051  4.250600  2.816000
0.28146  4.254700  2.770700
0.28243  4.263200  2.724100
0.28339  4.270600  2.678500
0.28437  4.274000  2.636200
0.28535  4.272500  2.596400
0.28634  4.265400  2.558500
0.28734  4.259200  2.525100
0.28834  4.255200  2.491900
0.28935  4.248000  2.457300
0.29036  4.240300  2.425600
0.29139  4.239000  2.394200
0.29242  4.242000  2.363400
0.29346  4.242400  2.337000
0.29450  4.237300  2.314000
0.29555  4.230700  2.293800
0.29662  4.227800  2.275400
0.29768  4.228700  2.255900
0.29876  4.230500  2.238300
0.29984  4.232300  2.225100
0.30093  4.235200  2.212200
0.30203  4.240700  2.198500
0.30314  4.248300  2.186900
0.30426  4.257100  2.177100
0.30538  4.266600  2.168200
0.30651  4.278500  2.159300
0.30766  4.291500  2.148300
0.30880  4.303800  2.134800
0.30996  4.317800  2.120600
0.31113  4.333600  2.105800
0.31231  4.350600  2.090400
0.31349  4.369700  2.075100
0.31468  4.390500  2.060100
0.31589  4.413700  2.045500
0.31710  4.438700  2.030400
0.31832  4.462000  2.013200
0.31955  4.484000  1.993900
0.32079  4.507800  1.970900
0.32204  4.533300  1.944800
0.32330  4.558500  1.917500
0.32457  4.584200  1.888600
0.32585  4.608300  1.858000
0.32714  4.627600  1.826300
0.32844  4.644500  1.793100
0.32975  4.660400  1.756100
0.33107  4.675000  1.714800
0.33240  4.689400  1.671600
0.33374  4.705900  1.626600
0.33510  4.722500  1.580400
0.33646  4.738900  1.533400
0.33783  4.756300  1.484500
0.33922  4.770500  1.433600
0.34062  4.779400  1.382200
0.34203  4.785100  1.330200
0.34345  4.788000  1.276700
0.34488  4.786500  1.223200
0.34633  4.780200  1.171600
0.34778  4.769900  1.121500
0.34925  4.756600  1.072400
0.35074  4.740700  1.024100
0.35223  4.722300  0.977430
0.35374  4.702100  0.932650
0.35526  4.681700  0.890130
0.35679  4.661200  0.850060
0.35834  4.640100  0.812090
0.35990  4.617600  0.776740
0.36147  4.594300  0.743960
0.36306  4.571000  0.713220
0.36466  4.547600  0.683880
0.36628  4.523700  0.655940
0.36791  4.499200  0.629940
0.36955  4.475500  0.605110
0.37121  4.452600  0.581010
0.37289  4.429500  0.557650
0.37458  4.406400  0.534810
0.37628  4.384000  0.513050
0.37800  4.362100  0.492630
0.37974  4.340100  0.473070
0.38149  4.318100  0.454210
0.38326  4.296500  0.436140
0.38505  4.275300  0.418710
0.38685  4.254400  0.402210
0.38867  4.233500  0.386220
0.39050  4.213200  0.369750
0.39236  4.193900  0.353050
0.39423  4.175000  0.337950
0.39612  4.156400  0.324960
0.39803  4.137800  0.312040
0.39995  4.119300  0.298780
0.40190  4.101000  0.285790
0.40386  4.082700  0.273330
0.40584  4.064500  0.261060
0.40785  4.046600  0.248160
0.40987  4.029600  0.235300
0.41191  4.013500  0.223450
0.41397  3.997800  0.213140
0.41606  3.982700  0.204260
0.41816  3.967600  0.196140
0.42029  3.951600  0.188560
0.42244  3.934400  0.181000
0.42461  3.917400  0.172890
0.42680  3.902500  0.163590
0.42901  3.890000  0.153290
0.43125  3.879100  0.143260
0.43351  3.867900  0.134070
0.43580  3.854200  0.125330
0.43811  3.838100  0.116480
0.44044  3.820700  0.108190
0.44280  3.804700  0.101250
0.44519  3.790200  0.094978
0.44760  3.775100  0.088532
0.45004  3.760000  0.081514
0.45250  3.744800  0.074262
0.45499  3.729200  0.068069
0.45751  3.714300  0.063764
0.46006  3.700200  0.060853
0.46263  3.686800  0.058065
0.46524  3.673800  0.054963
0.46787  3.661000  0.051399
0.47053  3.649200  0.046684
0.47323  3.637400  0.040991
0.47595  3.625300  0.035290
0.47871  3.613100  0.030545
0.48150  3.600400  0.026842
0.48432  3.587900  0.023760
0.48717  3.575400  0.020498
0.49006  3.562200  0.016593
0.49298  3.549900  0.012803
0.49594  3.538400  0.009313
0.49893  3.525300  0.005232
0.50196  3.511500  0.001451
0.50503  3.498600  0.000000
0.50814  3.485500  0.000000
0.51128  3.472400  0.000000
0.51446  3.461200  0.000000
0.51768  3.451100  0.000000
0.52095  3.440200  0.000000
0.52425  3.429700  0.000000
0.52760  3.420600  0.000000
0.53099  3.412500  0.000000
0.53442  3.403400  0.000000
0.53790  3.393900  0.000000
0.54142  3.385200  0.000000
0.54499  3.376100  0.000000
0.54861  3.367300  0.000000
0.55227  3.359200  0.000000
0.55599  3.352000  0.000000
0.55975  3.345600  0.000000
0.56357  3.338000  0.000000
0.56744  3.329300  0.000000
0.57136  3.322100  0.000000
0.57534  3.316300  0.000000
0.57937  3.309400  0.000000
0.58346  3.302000  0.000000
0.58761  3.295900  0.000000
0.59181  3.290000  0.000000
0.59608  3.283600  0.000000
0.60041  3.276600  0.000000
0.60481  3.269900  0.000000
0.60926  3.263800  0.000000
0.61379  3.257200  0.000000
0.61838  3.250700  0.000000
0.62304  3.245000  0.000000
0.62777  3.239900  0.000000
0.63258  3.235000  0.000000
0.63746  3.229500  0.000000
0.64241  3.224200  0.000000
0.64744  3.218800  0.000000
0.65255  3.214300  0.000000
0.65775  3.209800  0.000000
0.66302  3.204800  0.000000
0.66838  3.199200  0.000000
0.67383  3.193200  0.000000
0.67937  3.187800  0.000000
0.68500  3.183700  0.000000
0.69073  3.179700  0.000000
0.69655  3.174500  0.000000
0.70247  3.170000  0.000000
0.70849  3.166900  0.000000
0.71461  3.162500  0.000000
0.72084  3.157000  0.000000
0.72719  3.152800  0.000000
0.73364  3.149300  0.000000
0.74021  3.144600  0.000000
0.74690  3.140600  0.000000
0.75371  3.137300  0.000000
0.76065  3.132800  0.000000
0.76771  3.128400  0.000000
0.77491  3.124600  0.000000
0.78224  3.121500  0.000000
0.78971  3.118500  0.000000
0.79733  3.114900  0.000000
0.80510  3.111400  0.000000
0.81302  3.107900  0.000000
0.82109  3.105100  0.000000
0.82933  3.101800  0.000000
0.83774  3.097900  0.000000
0.84632  3.095200  0.000000
0.85507  3.092600  0.000000
0.86401  3.089400  0.000000
0.87314  3.086300  0.000000
0.88246  3.082700  0.000000
0.89198  3.078500  0.000000
0.90171  3.075500  0.000000
0.91166  3.073800  0.000000
0.92182  3.071500  0.000000
0.93222  3.068700  0.000000
0.94285  3.065900  0.000000
0.95373  3.063200  0.000000
0.96487  3.059900  0.000000
0.97626  3.056700  0.000000
0.98793  3.054700  0.000000
