; From SOPRA S.A. http://www.sopra-sa.com/indices.htm
; Filename    Symbol               Range (nm)     Description
; ALAS125T    AlAs                275      987    Aluminum Arsenide (Temp: 125 C)
; lambda/um       n         k
0.27583  4.411700  2.638400
0.27675  4.408000  2.585700
0.27768  4.397200  2.536100
0.27862  4.376100  2.497100
0.27956  4.355400  2.467000
0.28051  4.341100  2.439800
0.28146  4.324600  2.417100
0.28243  4.306500  2.399000
0.28339  4.289600  2.383100
0.28437  4.275100  2.368600
0.28535  4.262800  2.357900
0.28634  4.249000  2.348800
0.28734  4.233300  2.340600
0.28834  4.217200  2.336900
0.28935  4.204900  2.334400
0.29036  4.198300  2.330200
0.29139  4.198200  2.326600
0.29242  4.201800  2.325800
0.29346  4.206600  2.323800
0.29450  4.218800  2.320200
0.29555  4.235600  2.321700
0.29662  4.253300  2.325100
0.29768  4.275900  2.327500
0.29876  4.300000  2.335200
0.29984  4.325700  2.344000
0.30093  4.358900  2.346400
0.30203  4.396900  2.343400
0.30314  4.435800  2.338200
0.30426  4.479500  2.328600
0.30538  4.528300  2.314100
0.30651  4.579600  2.295400
0.30766  4.634800  2.271200
0.30880  4.689900  2.243400
0.30996  4.740500  2.212800
0.31113  4.790700  2.176500
0.31231  4.842800  2.134400
0.31349  4.893300  2.087700
0.31468  4.943200  2.039400
0.31589  4.992200  1.990100
0.31710  5.037500  1.934400
0.31832  5.083300  1.867600
0.31955  5.131500  1.793700
0.32079  5.174200  1.717000
0.32204  5.205800  1.635600
0.32330  5.229700  1.544000
0.32457  5.246000  1.442500
0.32585  5.247700  1.342500
0.32714  5.228700  1.253400
0.32844  5.188700  1.174900
0.32975  5.135700  1.104100
0.33107  5.079200  1.041700
0.33240  5.022900  0.990000
0.33374  4.968200  0.945220
0.33510  4.918000  0.900280
0.33646  4.877200  0.850890
0.33783  4.844400  0.799800
0.33922  4.810600  0.753400
0.34062  4.772600  0.712890
0.34203  4.734400  0.676080
0.34345  4.698900  0.642310
0.34488  4.663800  0.613670
0.34633  4.629000  0.591560
0.34778  4.596200  0.573540
0.34925  4.565500  0.555590
0.35074  4.536400  0.535980
0.35223  4.507900  0.516100
0.35374  4.479500  0.496540
0.35526  4.451900  0.477160
0.35679  4.425700  0.457650
0.35834  4.400500  0.437500
0.35990  4.375100  0.418610
0.36147  4.349900  0.404460
0.36306  4.325900  0.394780
0.36466  4.302600  0.384340
0.36628  4.280500  0.371570
0.36791  4.259400  0.359610
0.36955  4.238900  0.348900
0.37121  4.219200  0.337870
0.37289  4.199700  0.325060
0.37458  4.180200  0.310390
0.37628  4.161400  0.296120
0.37800  4.144700  0.283300
0.37974  4.129800  0.271560
0.38149  4.113900  0.259620
0.38326  4.096100  0.247400
0.38505  4.079300  0.236450
0.38685  4.063700  0.226460
0.38867  4.047900  0.216020
0.39050  4.032700  0.204010
0.39236  4.018400  0.190730
0.39423  4.003900  0.177340
0.39612  3.987100  0.164280
0.39803  3.969000  0.151550
0.39995  3.951800  0.139100
0.40190  3.933400  0.127460
0.40386  3.914200  0.116760
0.40584  3.895800  0.106300
0.40785  3.876500  0.096389
0.40987  3.858100  0.087196
0.41191  3.841400  0.078076
0.41397  3.822700  0.069366
0.41606  3.802800  0.061368
0.41816  3.783500  0.054221
0.42029  3.763400  0.048583
0.42244  3.744300  0.044421
0.42461  3.727400  0.040712
0.42680  3.711600  0.036429
0.42901  3.696100  0.031675
0.43125  3.681400  0.026809
0.43351  3.667400  0.021808
0.43580  3.652400  0.017025
0.43811  3.635700  0.012650
0.44044  3.618100  0.008287
0.44280  3.601500  0.003931
0.44519  3.584900  0.000912
0.44760  3.567100  0.000000
0.45004  3.550700  0.000000
0.45250  3.536300  0.000000
0.45499  3.523400  0.000000
0.45751  3.512000  0.000000
0.46006  3.500100  0.000000
0.46263  3.487900  0.000000
0.46524  3.475200  0.000000
0.46787  3.462000  0.000000
0.47053  3.450000  0.000000
0.47323  3.439100  0.000000
0.47595  3.429300  0.000000
0.47871  3.420600  0.000000
0.48150  3.411300  0.000000
0.48432  3.401400  0.000000
0.48717  3.390900  0.000000
0.49006  3.379800  0.000000
0.49298  3.370500  0.000000
0.49594  3.362300  0.000000
0.49893  3.352700  0.000000
0.50196  3.344100  0.000000
0.50503  3.337200  0.000000
0.50814  3.328800  0.000000
0.51128  3.319000  0.000000
0.51446  3.311000  0.000000
0.51768  3.304000  0.000000
0.52095  3.295400  0.000000
0.52425  3.287100  0.000000
0.52760  3.280500  0.000000
0.53099  3.274700  0.000000
0.53442  3.267500  0.000000
0.53790  3.259700  0.000000
0.54142  3.252800  0.000000
0.54499  3.245200  0.000000
0.54861  3.237700  0.000000
0.55227  3.231100  0.000000
0.55599  3.225500  0.000000
0.55975  3.220700  0.000000
0.56357  3.214500  0.000000
0.56744  3.206700  0.000000
0.57136  3.200600  0.000000
0.57534  3.196200  0.000000
0.57937  3.190400  0.000000
0.58346  3.183900  0.000000
0.58761  3.179000  0.000000
0.59181  3.174300  0.000000
0.59608  3.168800  0.000000
0.60041  3.162600  0.000000
0.60481  3.156500  0.000000
0.60926  3.151200  0.000000
0.61379  3.145300  0.000000
0.61838  3.139400  0.000000
0.62304  3.134400  0.000000
0.62777  3.130300  0.000000
0.63258  3.126200  0.000000
0.63746  3.121400  0.000000
0.64241  3.116800  0.000000
0.64744  3.112100  0.000000
0.65255  3.108300  0.000000
0.65775  3.104600  0.000000
0.66302  3.100200  0.000000
0.66838  3.095000  0.000000
0.67383  3.089200  0.000000
0.67937  3.084200  0.000000
0.68500  3.080800  0.000000
0.69073  3.077400  0.000000
0.69655  3.072600  0.000000
0.70247  3.068600  0.000000
0.70849  3.066200  0.000000
0.71461  3.062400  0.000000
0.72084  3.057000  0.000000
0.72719  3.053300  0.000000
0.73364  3.050300  0.000000
0.74021  3.045900  0.000000
0.74690  3.042300  0.000000
0.75371  3.039500  0.000000
0.76065  3.035200  0.000000
0.76771  3.031000  0.000000
0.77491  3.027700  0.000000
0.78224  3.025100  0.000000
0.78971  3.022500  0.000000
0.79733  3.019300  0.000000
0.80510  3.016100  0.000000
0.81302  3.012900  0.000000
0.82109  3.010600  0.000000
0.82933  3.007600  0.000000
0.83774  3.003800  0.000000
0.84632  3.001600  0.000000
0.85507  2.999400  0.000000
0.86401  2.996500  0.000000
0.87314  2.993600  0.000000
0.88246  2.990100  0.000000
0.89198  2.985900  0.000000
0.90171  2.983200  0.000000
0.91166  2.982000  0.000000
0.92182  2.980100  0.000000
0.93222  2.977500  0.000000
0.94285  2.974900  0.000000
0.95373  2.972400  0.000000
0.96487  2.969200  0.000000
0.97626  2.966100  0.000000
0.98793  2.964400  0.000000
