; From SOPRA S.A. http://www.sopra-sa.com/indices.htm
; Filename    Symbol               Range (nm)     Description
; ALGAAS1     Al0.099Ga0.901As    206     2479    Aluminum Gallium Arsenide (10% Al)
; lambda/um       n         k
0.20664  1.310656  2.457366
0.20733  1.301684  2.497852
0.20803  1.310326  2.493068
0.20873  1.315632  2.514294
0.20943  1.316461  2.523126
0.21014  1.318988  2.537508
0.21086  1.322009  2.550820
0.21158  1.322585  2.563876
0.21230  1.323271  2.577962
0.21303  1.325692  2.594880
0.21377  1.329968  2.607914
0.21451  1.332111  2.625005
0.21525  1.335743  2.642490
0.21600  1.337446  2.659720
0.21676  1.339280  2.677297
0.21752  1.344764  2.697206
0.21828  1.350091  2.715372
0.21906  1.354977  2.735420
0.21983  1.362214  2.757202
0.22061  1.365846  2.778400
0.22140  1.370669  2.800346
0.22220  1.375526  2.821992
0.22299  1.382302  2.844959
0.22380  1.391076  2.869482
0.22461  1.398464  2.894842
0.22543  1.407578  2.920649
0.22625  1.414935  2.945724
0.22708  1.425715  2.972278
0.22791  1.436317  2.999856
0.22875  1.447442  3.028626
0.22960  1.459337  3.058779
0.23046  1.471694  3.088743
0.23132  1.485119  3.120388
0.23218  1.499173  3.153627
0.23305  1.514850  3.187896
0.23393  1.531210  3.223087
0.23482  1.547996  3.261056
0.23571  1.566687  3.300551
0.23661  1.588331  3.341915
0.23752  1.608264  3.386835
0.23843  1.633963  3.432946
0.23935  1.661875  3.481828
0.24028  1.693338  3.534143
0.24122  1.728615  3.587841
0.24216  1.771502  3.644869
0.24311  1.819641  3.703863
0.24407  1.876197  3.762969
0.24503  1.942151  3.823673
0.24600  2.018955  3.882447
0.24698  2.107686  3.936171
0.24797  2.207408  3.982855
0.24897  2.315093  4.017531
0.24997  2.427796  4.039856
0.25098  2.545248  4.049819
0.25200  2.659976  4.047874
0.25303  2.771414  4.035529
0.25407  2.878011  4.012335
0.25511  2.984775  3.982131
0.25617  3.083471  3.942572
0.25723  3.177719  3.897654
0.25830  3.267408  3.846176
0.25938  3.348609  3.789108
0.26047  3.424857  3.728952
0.26157  3.493702  3.665762
0.26268  3.555359  3.600555
0.26380  3.610948  3.535806
0.26493  3.660767  3.470171
0.26606  3.705079  3.408327
0.26721  3.746481  3.345779
0.26837  3.787882  3.286518
0.26953  3.829296  3.229195
0.27071  3.872212  3.169637
0.27190  3.915413  3.105204
0.27310  3.955078  3.033869
0.27430  3.987892  2.955721
0.27552  4.010168  2.875817
0.27675  4.025893  2.796329
0.27799  4.032693  2.718819
0.27925  4.032212  2.644767
0.28051  4.027382  2.574069
0.28178  4.017389  2.507401
0.28307  4.003980  2.444685
0.28437  3.985972  2.387288
0.28568  3.966576  2.333967
0.28700  3.945786  2.284572
0.28834  3.921946  2.240071
0.28969  3.898175  2.198923
0.29105  3.873095  2.162126
0.29242  3.848932  2.129597
0.29380  3.824289  2.100181
0.29520  3.800956  2.074082
0.29662  3.778081  2.050806
0.29804  3.755967  2.031004
0.29948  3.734998  2.013154
0.30093  3.715431  1.997021
0.30240  3.696964  1.983240
0.30389  3.678993  1.971225
0.30538  3.662256  1.961227
0.30689  3.646769  1.952094
0.30842  3.632211  1.943677
0.30996  3.618474  1.936999
0.31152  3.605589  1.931995
0.31309  3.593762  1.927385
0.31468  3.583512  1.924044
0.31629  3.573784  1.921351
0.31791  3.565641  1.919967
0.31955  3.557745  1.919380
0.32121  3.551044  1.919361
0.32288  3.545296  1.920179
0.32457  3.540665  1.921776
0.32628  3.536975  1.923808
0.32800  3.534139  1.926838
0.32975  3.531806  1.930426
0.33151  3.531028  1.934381
0.33329  3.530705  1.939055
0.33510  3.531701  1.944673
0.33692  3.534077  1.950427
0.33876  3.536782  1.956790
0.34062  3.540734  1.963226
0.34250  3.545229  1.971205
0.34440  3.551895  1.979202
0.34633  3.559546  1.987480
0.34827  3.567683  1.997452
0.35024  3.577706  2.007392
0.35223  3.588553  2.018101
0.35424  3.600940  2.029863
0.35628  3.615167  2.042257
0.35834  3.630637  2.055182
0.36042  3.647764  2.069029
0.36253  3.667710  2.083606
0.36466  3.689679  2.099702
0.36682  3.714996  2.117575
0.36900  3.743454  2.136221
0.37121  3.776731  2.157563
0.37345  3.815971  2.179803
0.37571  3.863353  2.203659
0.37800  3.920607  2.226849
0.38032  3.991559  2.244198
0.38267  4.077032  2.247713
0.38505  4.168272  2.228446
0.38745  4.252757  2.186632
0.38989  4.319586  2.130617
0.39236  4.369136  2.072886
0.39486  4.404778  2.021345
0.39739  4.433125  1.979753
0.39995  4.459750  1.948722
0.40255  4.490623  1.927836
0.40518  4.532807  1.918424
0.40785  4.600103  1.916226
0.41055  4.704879  1.901097
0.41328  4.838265  1.835866
0.41606  4.954601  1.704012
0.41887  5.016101  1.541661
0.42172  5.027369  1.383868
0.42461  5.006365  1.243099
0.42754  4.967996  1.125485
0.43050  4.921653  1.026357
0.43351  4.871946  0.942515
0.43657  4.820383  0.873495
0.43966  4.773399  0.812217
0.44280  4.725115  0.763224
0.44599  4.680939  0.714647
0.44922  4.636960  0.674183
0.45250  4.595014  0.639121
0.45583  4.555497  0.603361
0.45920  4.517742  0.574718
0.46263  4.481670  0.549313
0.46611  4.446760  0.524198
0.46964  4.414062  0.505939
0.47323  4.382617  0.480302
0.47687  4.352695  0.461865
0.48056  4.323956  0.441206
0.48432  4.296402  0.427195
0.48813  4.270417  0.409082
0.49200  4.244371  0.396105
0.49594  4.219861  0.382672
0.49994  4.196317  0.370099
0.50400  4.173736  0.357337
0.50814  4.152061  0.344342
0.51234  4.130560  0.333570
0.51660  4.110639  0.319792
0.52095  4.090739  0.309697
0.52536  4.072362  0.297470
0.52985  4.053665  0.289223
0.53442  4.035349  0.282204
0.53907  4.017900  0.275619
0.54379  4.001462  0.267011
0.54861  3.985712  0.257012
0.55351  3.969616  0.250831
0.55849  3.955065  0.242309
0.56357  3.940506  0.236348
0.56874  3.927221  0.225518
0.57401  3.913770  0.215641
0.57937  3.900405  0.209807
0.58484  3.887665  0.204749
0.59041  3.875606  0.198737
0.59608  3.863434  0.193772
0.60187  3.852708  0.188365
0.60777  3.841461  0.182064
0.61379  3.830384  0.175602
0.61993  3.820063  0.170770
0.62619  3.811602  0.163072
0.63258  3.802703  0.155199
0.63910  3.793911  0.148501
0.64576  3.786593  0.139052
0.65255  3.775412  0.127514
0.65950  3.762045  0.119425
0.66659  3.749663  0.112636
0.67383  3.737244  0.107607
0.68124  3.726538  0.103225
0.68881  3.715889  0.099479
0.69655  3.706901  0.096749
0.70446  3.699519  0.093349
0.71256  3.691308  0.089128
0.72084  3.684673  0.086819
0.72932  3.677981  0.081660
0.73801  3.671696  0.079908
0.74690  3.666798  0.074164
0.75601  3.660893  0.071541
0.76534  3.658688  0.067474
0.77491  3.663453  0.059430
0.78472  3.660804  0.029924
0.79478  3.631005  0.008947
0.80510  3.605278  0.007687
0.81569  3.588981  0.006081
0.82657  3.571887  0.000000
