; From SOPRA S.A. http://www.sopra-sa.com/indices.htm
; Filename    Symbol               Range (nm)     Description
; ALGAAS2     Al0.198Ga0.802As    206     2479    Aluminum Gallium Arsenide (20% Al)
; lambda/um       n         k
0.20664  1.333004  2.457233
0.20733  1.332361  2.473840
0.20803  1.334770  2.496243
0.20873  1.338314  2.501957
0.20943  1.337468  2.519063
0.21014  1.339502  2.531464
0.21086  1.341925  2.541797
0.21158  1.342117  2.557588
0.21230  1.339946  2.573960
0.21303  1.345176  2.584878
0.21377  1.348579  2.600424
0.21451  1.351611  2.619349
0.21525  1.352419  2.635150
0.21600  1.356835  2.652663
0.21676  1.360196  2.670834
0.21752  1.366169  2.687996
0.21828  1.369616  2.708389
0.21906  1.373789  2.730078
0.21983  1.379901  2.750940
0.22061  1.385596  2.772115
0.22140  1.393167  2.793960
0.22220  1.400378  2.816707
0.22299  1.409072  2.840606
0.22380  1.415691  2.862713
0.22461  1.424928  2.886870
0.22543  1.433310  2.912314
0.22625  1.442987  2.937949
0.22708  1.455915  2.965398
0.22791  1.465763  2.991112
0.22875  1.478385  3.019235
0.22960  1.490599  3.049139
0.23046  1.504479  3.080127
0.23132  1.518355  3.109516
0.23218  1.534192  3.141111
0.23305  1.550236  3.174104
0.23393  1.567507  3.208368
0.23482  1.587016  3.245429
0.23571  1.605428  3.282795
0.23661  1.628293  3.321815
0.23752  1.651848  3.362820
0.23843  1.677377  3.407123
0.23935  1.706670  3.452473
0.24028  1.737486  3.499522
0.24122  1.772936  3.549272
0.24216  1.812628  3.600230
0.24311  1.859984  3.654293
0.24407  1.913007  3.706810
0.24503  1.973867  3.762100
0.24600  2.042645  3.816610
0.24698  2.121549  3.867027
0.24797  2.210407  3.913958
0.24897  2.307609  3.951429
0.24997  2.411828  3.978916
0.25098  2.520446  3.995118
0.25200  2.626513  3.999384
0.25303  2.734268  3.997181
0.25407  2.836310  3.987999
0.25511  2.941147  3.967961
0.25617  3.043761  3.941922
0.25723  3.142572  3.907743
0.25830  3.238188  3.867183
0.25938  3.330112  3.819280
0.26047  3.417655  3.763687
0.26157  3.498418  3.703179
0.26268  3.569959  3.640176
0.26380  3.638081  3.574623
0.26493  3.700003  3.510585
0.26606  3.759903  3.445228
0.26721  3.817504  3.376163
0.26837  3.874385  3.302506
0.26953  3.923945  3.223058
0.27071  3.966885  3.139244
0.27190  4.000392  3.054109
0.27310  4.023742  2.968511
0.27430  4.041489  2.884267
0.27552  4.052534  2.802625
0.27675  4.054560  2.724074
0.27799  4.052797  2.648815
0.27925  4.045265  2.578121
0.28051  4.033796  2.511889
0.28178  4.018470  2.449495
0.28307  3.999798  2.392097
0.28437  3.980014  2.338716
0.28568  3.957996  2.290194
0.28700  3.935243  2.245952
0.28834  3.910895  2.205854
0.28969  3.886520  2.170054
0.29105  3.862592  2.137256
0.29242  3.838978  2.108373
0.29380  3.816396  2.082720
0.29520  3.795072  2.058839
0.29662  3.774235  2.038226
0.29804  3.755102  2.019714
0.29948  3.736108  2.003407
0.30093  3.717954  1.988723
0.30240  3.701416  1.976332
0.30389  3.685663  1.965349
0.30538  3.670895  1.955585
0.30689  3.657072  1.947003
0.30842  3.644332  1.939453
0.30996  3.632592  1.933376
0.31152  3.621134  1.928462
0.31309  3.611439  1.924150
0.31468  3.602790  1.921224
0.31629  3.594856  1.918920
0.31791  3.588086  1.917165
0.31955  3.582366  1.916476
0.32121  3.577524  1.916767
0.32288  3.572966  1.917668
0.32457  3.570113  1.919238
0.32628  3.567875  1.921876
0.32800  3.566894  1.923829
0.32975  3.566212  1.927858
0.33151  3.567281  1.931715
0.33329  3.569265  1.936620
0.33510  3.571888  1.942043
0.33692  3.575306  1.947903
0.33876  3.580406  1.954868
0.34062  3.586391  1.962209
0.34250  3.593153  1.970115
0.34440  3.602071  1.978593
0.34633  3.611485  1.987930
0.34827  3.623107  1.998024
0.35024  3.636590  2.008760
0.35223  3.651005  2.021033
0.35424  3.667880  2.034259
0.35628  3.686395  2.047899
0.35834  3.707295  2.062770
0.36042  3.731748  2.078805
0.36253  3.759749  2.095602
0.36466  3.792241  2.114867
0.36682  3.830871  2.135049
0.36900  3.877896  2.155130
0.37121  3.935431  2.173734
0.37345  4.005865  2.184021
0.37571  4.084553  2.180199
0.37800  4.163953  2.158334
0.38032  4.235924  2.119758
0.38267  4.295193  2.071839
0.38505  4.342071  2.022990
0.38745  4.379243  1.978127
0.38989  4.411695  1.939116
0.39236  4.442262  1.909874
0.39486  4.480830  1.889415
0.39739  4.532915  1.875412
0.39995  4.607764  1.857738
0.40255  4.706585  1.817247
0.40518  4.813539  1.733469
0.40785  4.896556  1.606971
0.41055  4.938106  1.461632
0.41328  4.942551  1.321523
0.41606  4.920755  1.200038
0.41887  4.885893  1.096294
0.42172  4.844894  1.009071
0.42461  4.801567  0.930706
0.42754  4.756800  0.864135
0.43050  4.712193  0.805917
0.43351  4.668435  0.754586
0.43657  4.625980  0.709651
0.43966  4.585485  0.672056
0.44280  4.547171  0.636383
0.44599  4.509681  0.604086
0.44922  4.474409  0.572915
0.45250  4.439553  0.549106
0.45583  4.406644  0.520398
0.45920  4.375099  0.498216
0.46263  4.344306  0.479540
0.46611  4.315211  0.458824
0.46964  4.286961  0.445576
0.47323  4.259450  0.424784
0.47687  4.234809  0.408328
0.48056  4.209727  0.390461
0.48432  4.185778  0.378492
0.48813  4.162738  0.364640
0.49200  4.139870  0.354287
0.49594  4.118396  0.341816
0.49994  4.098385  0.327721
0.50400  4.078797  0.316918
0.50814  4.059605  0.304794
0.51234  4.041221  0.294020
0.51660  4.022282  0.287414
0.52095  4.004957  0.277216
0.52536  3.988237  0.267030
0.52985  3.971852  0.254968
0.53442  3.955481  0.248952
0.53907  3.939895  0.242677
0.54379  3.925164  0.234749
0.54861  3.911522  0.223441
0.55351  3.896782  0.220530
0.55849  3.883865  0.210177
0.56357  3.871290  0.202586
0.56874  3.859315  0.194863
0.57401  3.847709  0.186275
0.57937  3.836514  0.179075
0.58484  3.825819  0.171553
0.59041  3.815275  0.165078
0.59608  3.806211  0.155426
0.60187  3.797020  0.146961
0.60777  3.786891  0.133874
0.61379  3.773072  0.124288
0.61993  3.759482  0.117954
0.62619  3.747351  0.111979
0.63258  3.735615  0.106513
0.63910  3.723547  0.100775
0.64576  3.711327  0.096830
0.65255  3.700144  0.094040
0.65950  3.691118  0.091602
0.66659  3.680932  0.087988
0.67383  3.672701  0.087189
0.68124  3.666095  0.084766
0.68881  3.662090  0.081499
0.69655  3.656333  0.074729
0.70446  3.650700  0.071804
0.71256  3.657424  0.067870
0.72084  3.665721  0.035030
0.72932  3.635508  0.001863
0.73801  3.610271  0.002221
0.74690  3.589056  0.000158
0.75601  3.570360  0.001475
0.76534  3.552525  0.001298
0.77491  3.535782  0.002185
0.78472  3.519373  0.002179
0.79478  3.503210  0.001741
0.80510  3.487570  0.001677
0.81569  3.472080  0.000165
0.82657  3.456877  0.000000
