; From SOPRA S.A. http://www.sopra-sa.com/indices.htm
; Filename    Symbol               Range (nm)     Description
; ARACHI
; lambda/um       n         k
0.25000  1.650273  0.000000
0.25650  1.625126  0.000000
0.26300  1.605781  0.000000
0.26950  1.591229  0.000000
0.27600  1.580641  0.000000
0.28250  1.573333  0.000000
0.28900  1.568738  0.000000
0.29550  1.566386  0.000000
0.30200  1.565886  0.000000
0.30850  1.566912  0.000000
0.31500  1.569190  0.000000
0.32150  1.572493  0.000000
0.32800  1.576631  0.000000
0.33450  1.581442  0.000000
0.34100  1.586792  0.000000
0.34750  1.592568  0.000000
0.35400  1.598675  0.000000
0.36050  1.605033  0.000000
0.36700  1.611576  0.000000
0.37350  1.618246  0.000000
0.38000  1.624997  0.000000
0.38650  1.631789  0.000000
0.39300  1.638589  0.000000
0.39950  1.645370  0.000000
0.40600  1.652108  0.000000
0.41250  1.658786  0.000000
0.41900  1.665387  0.000000
0.42550  1.671899  0.000000
0.43200  1.678312  0.000000
0.43850  1.684618  0.000000
0.44500  1.690811  0.000000
0.45150  1.696885  0.000000
0.45800  1.702838  0.000000
0.46450  1.708667  0.000000
0.47100  1.714370  0.000000
0.47750  1.719947  0.000000
0.48400  1.725398  0.000000
0.49050  1.730722  0.000000
0.49700  1.735921  0.000000
0.50350  1.740996  0.000000
0.51000  1.745949  0.000000
0.51650  1.750781  0.000000
0.52300  1.755495  0.000000
0.52950  1.760092  0.000000
0.53600  1.764575  0.000000
0.54250  1.768947  0.000000
0.54900  1.773209  0.000000
0.55550  1.777364  0.000000
0.56200  1.781415  0.000000
0.56850  1.785365  0.000000
0.57500  1.789215  0.000000
0.58150  1.792969  0.000000
0.58800  1.796628  0.000000
0.59450  1.800197  0.000000
0.60100  1.803676  0.000000
0.60750  1.807068  0.000000
0.61400  1.810376  0.000000
0.62050  1.813602  0.000000
0.62700  1.816749  0.000000
0.63350  1.819818  0.000000
0.64000  1.822812  0.000000
0.64650  1.825733  0.000000
0.65300  1.828583  0.000000
0.65950  1.831363  0.000000
0.66600  1.834077  0.000000
0.67250  1.836726  0.000000
0.67900  1.839311  0.000000
0.68550  1.841835  0.000000
0.69200  1.844300  0.000000
0.69850  1.846706  0.000000
0.70500  1.849056  0.000000
0.71150  1.851352  0.000000
0.71800  1.853594  0.000000
0.72450  1.855784  0.000000
0.73100  1.857925  0.000000
0.73750  1.860016  0.000000
0.74400  1.862061  0.000000
0.75050  1.864058  0.000000
0.75700  1.866012  0.000000
0.76350  1.867922  0.000000
0.77000  1.869789  0.000000
0.77650  1.871615  0.000000
0.78300  1.873402  0.000000
0.78950  1.875149  0.000000
0.79600  1.876858  0.000000
0.80250  1.878531  0.000000
0.80900  1.880168  0.000000
0.81550  1.881770  0.000000
0.82200  1.883338  0.000000
0.82850  1.884873  0.000000
0.83500  1.886376  0.000000
0.84150  1.887847  0.000000
0.84800  1.889288  0.000000
0.85450  1.890700  0.000000
0.86100  1.892082  0.000000
0.86750  1.893437  0.000000
0.87400  1.894764  0.000000
0.88050  1.896064  0.000000
0.88700  1.897339  0.000000
0.89350  1.898588  0.000000
0.90000  1.899812  0.000000
