; From SOPRA S.A. http://www.sopra-sa.com/indices.htm
; Filename    Symbol               Range (nm)     Description
; GAAS        GaAs                206     2479    Gallium Arsenide
; lambda/um       n         k
0.20664  1.264000  2.472000
0.20838  1.272828  2.520922
0.21014  1.288000  2.557000
0.21194  1.300125  2.591000
0.21377  1.311000  2.625000
0.21563  1.317938  2.665188
0.21752  1.325000  2.710000
0.21944  1.335750  2.760250
0.22140  1.349000  2.815000
0.22340  1.364562  2.873125
0.22543  1.383000  2.936000
0.22750  1.404313  3.004063
0.22960  1.430000  3.079000
0.23175  1.461188  3.161625
0.23393  1.499000  3.255000
0.23616  1.540625  3.361063
0.23843  1.599000  3.484000
0.24075  1.677312  3.635749
0.24311  1.802000  3.795000
0.24552  2.011624  3.961249
0.24797  2.273000  4.084000
0.25048  2.582689  4.100875
0.25303  2.890000  4.047000
0.25564  3.138564  3.926062
0.25830  3.342000  3.770000
0.26102  3.487563  3.611375
0.26380  3.598000  3.452000
0.26663  3.690500  3.306251
0.26953  3.769000  3.169000
0.27249  3.845312  3.048563
0.27552  3.913000  2.919000
0.27862  3.977750  2.744312
0.28178  4.015000  2.563000
0.28502  3.991437  2.401187
0.28834  3.939000  2.260000
0.29173  3.877125  2.151813
0.29520  3.810000  2.069000
0.29876  3.748625  2.010125
0.30240  3.692000  1.969000
0.30614  3.643063  1.939250
0.30996  3.601000  1.920000
0.31389  3.566125  1.908625
0.31791  3.538000  1.904000
0.32204  3.516562  1.904125
0.32628  3.501000  1.909000
0.33063  3.490062  1.918187
0.33510  3.485000  1.931000
0.33969  3.486750  1.946375
0.34440  3.495000  1.965000
0.34925  3.509562  1.987188
0.35424  3.531000  2.013000
0.35938  3.558688  2.042125
0.36466  3.596000  2.076000
0.37011  3.642250  2.115062
0.37571  3.709000  2.162000
0.38149  3.803375  2.239250
0.38745  3.938000  2.288000
0.39360  4.161312  2.237250
0.39995  4.373000  2.146000
0.40651  4.434250  2.052313
0.41328  4.509000  1.948000
0.42029  4.794813  1.867750
0.42754  5.052000  1.721000
0.43504  5.056000  1.360249
0.44280  4.959000  0.991000
0.45086  4.833312  0.807688
0.45920  4.694000  0.696000
0.46787  4.586375  0.605188
0.47687  4.492000  0.539000
0.48622  4.407876  0.484563
0.49594  4.333000  0.441000
0.50606  4.265625  0.403063
0.51660  4.205000  0.371000
0.52760  4.149937  0.343875
0.53907  4.100000  0.320000
0.55105  4.054500  0.297063
0.56357  4.013000  0.276000
0.57668  3.974937  0.257063
0.59041  3.940000  0.240000
0.60481  3.907687  0.225250
0.61993  3.878000  0.211000
0.63582  3.850688  0.194938
0.65255  3.826000  0.179000
0.67019  3.804938  0.165438
0.68881  3.785000  0.151000
0.70849  3.763562  0.131063
0.72932  3.742000  0.112000
0.75143  3.720438  0.099750
0.77491  3.700000  0.091000
0.79990  3.683625  0.089082
0.82657  3.666000  0.080000
0.85507  3.642575  0.040263
0.88561  3.614000  0.001690
0.91841  3.576075  0.004049
0.95373  3.538800  0.000000
0.99188  3.513037  0.000106
1.03321  3.492000  0.000000
1.07813  3.472338  0.000000
1.12714  3.454600  0.000000
1.18081  3.438231  0.000000
1.23985  3.423200  0.000000
1.30511  3.409312  0.000000
1.37761  3.396500  0.000000
1.45865  3.384644  0.000000
1.54981  3.373700  0.000000
1.65314  3.363606  0.000000
1.77122  3.354300  0.000000
1.90746  3.345695  0.000000
2.06642  3.337800  0.000000
2.25428  3.330600  0.000000
2.47970  3.324000  0.000000
