; From SOPRA S.A. http://www.sopra-sa.com/indices.htm
; Filename    Symbol               Range (nm)     Description
; INGAAS      In0.53Ga0.74As      206     1239    Indium Gallium Arsenide
; lambda/um       n         k
0.20664  1.343970  2.267680
0.20733  1.325074  2.214232
0.20803  1.306591  2.287556
0.20873  1.321711  2.273331
0.20943  1.304423  2.262950
0.21014  1.320160  2.269408
0.21086  1.312537  2.290522
0.21158  1.307405  2.279340
0.21230  1.305534  2.287576
0.21303  1.299284  2.299940
0.21377  1.303303  2.309068
0.21451  1.300766  2.325693
0.21525  1.299994  2.341211
0.21600  1.302024  2.353607
0.21676  1.302834  2.363872
0.21752  1.304424  2.377073
0.21828  1.302179  2.393675
0.21906  1.308134  2.411402
0.21983  1.310178  2.424643
0.22061  1.312373  2.444598
0.22140  1.316382  2.461717
0.22220  1.321616  2.476729
0.22299  1.327936  2.493206
0.22380  1.332543  2.511296
0.22461  1.337993  2.529669
0.22543  1.344934  2.546832
0.22625  1.352330  2.564560
0.22708  1.359657  2.586217
0.22791  1.368511  2.605148
0.22875  1.376940  2.624696
0.22960  1.387652  2.645684
0.23046  1.397733  2.664761
0.23132  1.407819  2.685401
0.23218  1.419623  2.705803
0.23305  1.431234  2.726876
0.23393  1.443392  2.748876
0.23482  1.457207  2.770506
0.23571  1.469053  2.795060
0.23661  1.483390  2.816856
0.23752  1.497513  2.840042
0.23843  1.513881  2.864693
0.23935  1.529879  2.889527
0.24028  1.547013  2.914276
0.24122  1.564289  2.939650
0.24216  1.582931  2.966477
0.24311  1.601524  2.994569
0.24407  1.623115  3.023293
0.24503  1.645550  3.052163
0.24600  1.669075  3.083117
0.24698  1.695310  3.114563
0.24797  1.724777  3.148116
0.24897  1.756539  3.182637
0.24997  1.790920  3.216831
0.25098  1.829332  3.252056
0.25200  1.870430  3.287891
0.25303  1.916128  3.322188
0.25407  1.964163  3.355449
0.25511  2.018334  3.387546
0.25617  2.075161  3.417073
0.25723  2.137177  3.444207
0.25830  2.202668  3.467635
0.25938  2.272506  3.487210
0.26047  2.345234  3.502368
0.26157  2.420465  3.512558
0.26268  2.496965  3.516805
0.26380  2.576613  3.515609
0.26493  2.656602  3.507941
0.26606  2.736219  3.494683
0.26721  2.815067  3.475086
0.26837  2.892607  3.448876
0.26953  2.966359  3.417437
0.27071  3.037062  3.380782
0.27190  3.103892  3.340451
0.27310  3.166476  3.297288
0.27430  3.225788  3.251441
0.27552  3.280611  3.202246
0.27675  3.334889  3.151256
0.27799  3.383405  3.096889
0.27925  3.429965  3.039564
0.28051  3.469995  2.979416
0.28178  3.505975  2.916570
0.28307  3.535930  2.852386
0.28437  3.558975  2.786839
0.28568  3.575369  2.722909
0.28700  3.586570  2.661019
0.28834  3.593350  2.602100
0.28969  3.596345  2.545926
0.29105  3.595742  2.492286
0.29242  3.593145  2.442505
0.29380  3.587819  2.395556
0.29520  3.580473  2.351996
0.29662  3.571920  2.310942
0.29804  3.561761  2.273036
0.29948  3.549726  2.237932
0.30093  3.537289  2.205167
0.30240  3.524957  2.174628
0.30389  3.512770  2.146481
0.30538  3.500472  2.120278
0.30689  3.488521  2.096301
0.30842  3.476569  2.074369
0.30996  3.464580  2.053982
0.31152  3.453247  2.035104
0.31309  3.442090  2.017682
0.31468  3.431189  2.001639
0.31629  3.421437  1.987331
0.31791  3.411322  1.974469
0.31955  3.401801  1.962557
0.32121  3.393190  1.951240
0.32288  3.385059  1.940793
0.32457  3.377106  1.931639
0.32628  3.369316  1.923418
0.32800  3.362317  1.916033
0.32975  3.355820  1.909721
0.33151  3.350860  1.903275
0.33329  3.345309  1.898389
0.33510  3.340386  1.893717
0.33692  3.336273  1.890038
0.33876  3.332727  1.886483
0.34062  3.329136  1.883605
0.34250  3.326919  1.881430
0.34440  3.324908  1.879482
0.34633  3.323389  1.878361
0.34827  3.322356  1.877604
0.35024  3.321649  1.877298
0.35223  3.321350  1.877772
0.35424  3.322045  1.878431
0.35628  3.323333  1.879837
0.35834  3.324895  1.881418
0.36042  3.326901  1.883545
0.36253  3.329534  1.886204
0.36466  3.333317  1.889115
0.36682  3.337332  1.892989
0.36900  3.342156  1.896746
0.37121  3.347830  1.901229
0.37345  3.354238  1.906529
0.37571  3.361567  1.912208
0.37800  3.369401  1.918102
0.38032  3.378176  1.924151
0.38267  3.388040  1.931015
0.38505  3.398629  1.938295
0.38745  3.410906  1.946030
0.38989  3.424402  1.954359
0.39236  3.438863  1.963230
0.39486  3.455208  1.972374
0.39739  3.472506  1.981607
0.39995  3.491525  1.991256
0.40255  3.512579  2.001293
0.40518  3.535989  2.011499
0.40785  3.562335  2.021953
0.41055  3.590257  2.032714
0.41328  3.622737  2.043207
0.41606  3.657121  2.052594
0.41887  3.695648  2.061345
0.42172  3.739161  2.066328
0.42461  3.786504  2.069197
0.42754  3.838623  2.066856
0.43050  3.894164  2.057833
0.43351  3.950993  2.040996
0.43657  4.005767  2.017136
0.43966  4.056767  1.986549
0.44280  4.102786  1.951755
0.44599  4.143271  1.914468
0.44922  4.179193  1.876720
0.45250  4.212276  1.839008
0.45583  4.243131  1.804039
0.45920  4.272836  1.772011
0.46263  4.304677  1.741606
0.46611  4.339346  1.712728
0.46964  4.382442  1.677749
0.47323  4.431924  1.638087
0.47687  4.484027  1.586629
0.48056  4.533370  1.523034
0.48432  4.574856  1.444744
0.48813  4.602112  1.358178
0.49200  4.614376  1.267684
0.49594  4.612768  1.180730
0.49994  4.600485  1.101659
0.50400  4.581034  1.029042
0.50814  4.556182  0.963126
0.51234  4.528138  0.904178
0.51660  4.499447  0.850251
0.52095  4.469340  0.805583
0.52536  4.438943  0.765163
0.52985  4.408488  0.729243
0.53442  4.379453  0.693927
0.53907  4.350904  0.664571
0.54379  4.323300  0.638156
0.54861  4.296765  0.612156
0.55351  4.270913  0.586824
0.55849  4.246147  0.565143
0.56357  4.223058  0.543724
0.56874  4.200164  0.524556
0.57401  4.177574  0.507487
0.57937  4.156041  0.492009
0.58484  4.134835  0.479064
0.59041  4.114195  0.465776
0.59608  4.094398  0.452184
0.60187  4.075736  0.440615
0.60777  4.057786  0.427743
0.61379  4.040063  0.413535
0.61993  4.023070  0.401476
0.62619  4.006490  0.390081
0.63258  3.990132  0.379375
0.63910  3.973346  0.373407
0.64576  3.958046  0.365016
0.65255  3.942698  0.356292
0.65950  3.927732  0.350812
0.66659  3.912722  0.347288
0.67383  3.899568  0.339953
0.68124  3.886891  0.331334
0.68881  3.873913  0.326676
0.69655  3.861609  0.317536
0.70446  3.850256  0.309179
0.71256  3.838730  0.306732
0.72084  3.827957  0.297833
0.72932  3.816342  0.297394
0.73801  3.805897  0.291238
0.74690  3.796701  0.284234
0.75601  3.785909  0.286171
0.76534  3.774120  0.291287
0.77491  3.763580  0.281754
0.78472  3.753650  0.280562
0.79478  3.744293  0.282778
0.80510  3.733750  0.287163
0.81569  3.726202  0.284745
0.82657  3.720304  0.260895
