; From SOPRA S.A. http://www.sopra-sa.com/indices.htm
; Filename    Symbol               Range (nm)     Description
; INSB        InSb                206     1239    Indium Antimonide
; lambda/um       n         k
0.20664  1.230000  1.910000
0.20751  1.013392  2.080710
0.20838  0.915925  2.163737
0.20926  0.897122  2.189787
0.21014  0.911309  2.193919
0.21104  0.934750  2.192718
0.21194  0.946825  2.200068
0.21285  0.957597  2.206250
0.21377  0.968598  2.210412
0.21469  0.979602  2.216706
0.21563  0.988776  2.223516
0.21657  0.994910  2.229635
0.21752  1.000801  2.235846
0.21848  1.006951  2.242937
0.21944  1.013101  2.252294
0.22042  1.019215  2.263015
0.22140  1.025360  2.274760
0.22239  1.031762  2.287640
0.22340  1.038872  2.301690
0.22441  1.047207  2.316986
0.22543  1.056891  2.332503
0.22646  1.068268  2.347878
0.22750  1.082036  2.363250
0.22854  1.097987  2.378740
0.22960  1.115795  2.394265
0.23067  1.133969  2.408191
0.23175  1.152682  2.419830
0.23284  1.173409  2.428509
0.23393  1.194378  2.435357
0.23504  1.214664  2.440832
0.23616  1.234315  2.444598
0.23729  1.252897  2.445919
0.23843  1.269916  2.443785
0.23958  1.285087  2.440304
0.24075  1.297511  2.436544
0.24192  1.304841  2.433124
0.24311  1.308735  2.430448
0.24431  1.310712  2.428996
0.24552  1.311096  2.429981
0.24674  1.310045  2.433868
0.24797  1.307160  2.440840
0.24922  1.303953  2.450977
0.25048  1.301480  2.464038
0.25175  1.300565  2.478513
0.25303  1.301115  2.494721
0.25433  1.302819  2.513452
0.25564  1.304924  2.533641
0.25696  1.307495  2.554697
0.25830  1.311661  2.576014
0.25965  1.317453  2.597858
0.26102  1.324790  2.620510
0.26240  1.332472  2.644308
0.26380  1.340712  2.669180
0.26521  1.350827  2.694752
0.26663  1.361632  2.721077
0.26808  1.372692  2.748160
0.26953  1.384873  2.776058
0.27101  1.398263  2.804545
0.27249  1.412870  2.833253
0.27400  1.427976  2.862849
0.27552  1.443423  2.893801
0.27706  1.459593  2.926828
0.27862  1.476691  2.961313
0.28019  1.494953  2.996757
0.28178  1.515020  3.034342
0.28339  1.537061  3.074321
0.28502  1.560736  3.116441
0.28667  1.587243  3.161333
0.28834  1.617422  3.209363
0.29002  1.651332  3.260362
0.29173  1.690410  3.314547
0.29346  1.736428  3.372291
0.29520  1.791015  3.433323
0.29697  1.855797  3.496283
0.29876  1.932470  3.558546
0.30057  2.022707  3.616161
0.30240  2.127807  3.665059
0.30426  2.245713  3.700386
0.30614  2.372670  3.718596
0.30804  2.503593  3.715625
0.30996  2.631744  3.693768
0.31191  2.751755  3.655208
0.31389  2.861111  3.604239
0.31589  2.958698  3.544438
0.31791  3.043847  3.479502
0.31996  3.117303  3.411223
0.32204  3.180534  3.341503
0.32414  3.237126  3.272373
0.32628  3.287262  3.203515
0.32844  3.330997  3.134562
0.33063  3.369062  3.066112
0.33285  3.401354  2.998776
0.33510  3.426792  2.933227
0.33737  3.446920  2.870534
0.33969  3.462846  2.811493
0.34203  3.474978  2.756452
0.34440  3.484626  2.704683
0.34681  3.493573  2.654975
0.34925  3.501137  2.607212
0.35173  3.507085  2.561347
0.35424  3.510999  2.517626
0.35679  3.513270  2.476627
0.35938  3.514415  2.438854
0.36200  3.516436  2.403578
0.36466  3.519754  2.369263
0.36736  3.524357  2.332930
0.37011  3.527600  2.295083
0.37289  3.527644  2.256242
0.37571  3.524317  2.218151
0.37858  3.517488  2.182049
0.38149  3.506949  2.149293
0.38445  3.494769  2.119686
0.38745  3.481713  2.092959
0.39050  3.466939  2.067636
0.39360  3.451172  2.045480
0.39675  3.435193  2.028344
0.39995  3.418960  2.015199
0.40320  3.403114  2.005579
0.40651  3.388906  1.998954
0.40987  3.376478  1.995192
0.41328  3.366000  1.993984
0.41676  3.357470  1.994344
0.42029  3.350697  1.996122
0.42388  3.345319  1.999412
0.42754  3.341779  2.004256
0.43125  3.340136  2.010566
0.43504  3.339928  2.017996
0.43889  3.341413  2.026574
0.44280  3.344874  2.036334
0.44679  3.349806  2.046436
0.45086  3.356375  2.057081
0.45499  3.365304  2.069503
0.45920  3.376489  2.082965
0.46350  3.389954  2.097075
0.46787  3.405989  2.112413
0.47232  3.424831  2.128661
0.47687  3.446763  2.145105
0.48150  3.471557  2.162087
0.48622  3.499551  2.180007
0.49103  3.531714  2.200236
0.49594  3.569603  2.221365
0.50095  3.614876  2.241754
0.50606  3.669379  2.263162
0.51128  3.736253  2.280935
0.51660  3.824084  2.286146
0.52204  3.919385  2.265094
0.52760  4.009381  2.210258
0.53327  4.073326  2.137563
0.53907  4.110854  2.059689
0.54499  4.128556  1.992572
0.55105  4.135039  1.935091
0.55724  4.136219  1.888066
0.56357  4.135356  1.850457
0.57005  4.133700  1.820840
0.57668  4.132169  1.797706
0.58346  4.132760  1.780843
0.59041  4.136466  1.769786
0.59752  4.143402  1.764133
0.60481  4.154508  1.762991
0.61227  4.170796  1.765846
0.61993  4.193392  1.773696
0.62777  4.224796  1.787422
0.63582  4.265928  1.808213
0.64408  4.332577  1.842413
0.65255  4.436913  1.876637
0.66125  4.610289  1.853810
0.67019  4.785148  1.757817
0.67937  4.881357  1.577490
0.68881  4.911435  1.397574
0.69851  4.889059  1.247445
0.70849  4.850066  1.125800
0.71875  4.802163  1.027958
0.72932  4.752841  0.949520
0.74021  4.703722  0.883037
0.75143  4.656249  0.827206
0.76299  4.611481  0.784127
0.77491  4.567971  0.748764
0.78721  4.525620  0.717844
0.79990  4.485960  0.688630
0.81302  4.450201  0.662210
0.82657  4.419554  0.640349
0.84058  4.400388  0.602316
0.85507  4.393260  0.544407
0.87007  4.395990  0.471420
0.88561  4.396381  0.406989
0.90171  4.385490  0.368346
0.91841  4.369344  0.343323
0.93574  4.349837  0.327899
0.95373  4.328637  0.318256
0.97243  4.306595  0.313909
0.99188  4.284427  0.313621
1.01212  4.262140  0.315821
1.03321  4.240155  0.319566
1.05519  4.218920  0.324012
1.07813  4.199633  0.327638
1.10209  4.182871  0.329047
1.12714  4.168600  0.326717
1.15335  4.157590  0.319813
1.18081  4.150540  0.307383
1.20961  4.147855  0.287911
1.23985  4.150000  0.260000
