; From SOPRA S.A. http://www.sopra-sa.com/indices.htm
; Filename    Symbol               Range (nm)     Description
; INSBOX      InSbO               206      774    Indium Antimonide Oxide
; lambda/um       n         k
0.20664  1.805000  0.851000
0.21014  1.831000  0.862000
0.21377  1.861000  0.872500
0.21752  1.894000  0.881900
0.22140  1.931000  0.889600
0.22543  1.972000  0.894800
0.22960  2.018000  0.896300
0.23393  2.068000  0.892900
0.23843  2.121000  0.883000
0.24311  2.177000  0.865300
0.24797  2.235000  0.838100
0.25303  2.291000  0.800400
0.25830  2.343000  0.752100
0.26380  2.387000  0.693900
0.26953  2.421000  0.627900
0.27552  2.443000  0.557100
0.28178  2.453000  0.485300
0.28834  2.450000  0.416000
0.29520  2.436000  0.351700
0.30240  2.415000  0.294500
0.30996  2.388000  0.245100
0.31791  2.358000  0.203500
0.32628  2.327000  0.169200
0.33510  2.295000  0.141400
0.34440  2.264000  0.119100
0.35424  2.235000  0.101600
0.36466  2.208000  0.087940
0.37571  2.182000  0.077420
0.38745  2.159000  0.069430
0.39995  2.137000  0.063470
0.41328  2.118000  0.059110
0.42754  2.100000  0.056020
0.44280  2.084000  0.053920
0.45920  2.069000  0.052580
0.47687  2.056000  0.051840
0.49594  2.044000  0.051550
0.51660  2.033000  0.051590
0.53907  2.022975  0.051840
0.56357  2.013901  0.052178
0.59041  2.005750  0.052486
0.61993  1.998500  0.052642
0.65255  1.992126  0.052525
0.68881  1.986602  0.052017
0.72932  1.981900  0.050995
0.77491  1.978000  0.049340
