; From SOPRA S.A. http://www.sopra-sa.com/indices.htm
; Filename    Symbol               Range (nm)     Description
; IR3SI5E     Ir3Si5              151      302    Iridium Silicide
; lambda/um       n         k
0.15120  1.191000  1.744000
0.15307  1.197000  1.768000
0.15498  1.207000  1.796000
0.15694  1.221000  1.825000
0.15896  1.239000  1.853000
0.16102  1.260000  1.881000
0.16314  1.282000  1.908000
0.16531  1.307000  1.933000
0.16755  1.333000  1.955000
0.16984  1.361000  1.975000
0.17220  1.392000  1.995000
0.17463  1.424000  2.013000
0.17712  1.459000  2.027000
0.17969  1.495000  2.037000
0.18233  1.531000  2.046000
0.18505  1.568000  2.053000
0.18786  1.604000  2.057000
0.19075  1.641000  2.058000
0.19373  1.676000  2.059000
0.19680  1.710000  2.062000
0.19998  1.745000  2.066000
0.20325  1.780000  2.068000
0.20664  1.817000  2.067000
0.21014  1.855000  2.063000
0.21377  1.896000  2.060000
0.21752  1.940000  2.057000
0.22140  1.987000  2.050000
0.22543  2.035000  2.038000
0.22960  2.084000  2.022000
0.23393  2.136000  2.006000
0.23843  2.189000  1.990000
0.24311  2.240000  1.975000
0.24797  2.285000  1.964000
0.25303  2.317000  1.955000
0.25830  2.342000  1.947000
0.26380  2.365000  1.939000
0.26953  2.386000  1.932000
0.27552  2.401000  1.925000
0.28178  2.410000  1.921000
0.28834  2.413000  1.918000
0.29520  2.410000  1.917000
0.30240  2.402000  1.919000
