; From SOPRA S.A. http://www.sopra-sa.com/indices.htm
; Filename    Symbol               Range (nm)     Description
; MO          Mo                  190     2479    Molybdenum
; lambda/um       n         k
0.19075  0.783000  2.300000
0.19148  0.784383  2.313515
0.19223  0.785813  2.328125
0.19297  0.787336  2.343672
0.19373  0.789000  2.360000
0.19449  0.790852  2.376953
0.19525  0.792938  2.394375
0.19602  0.795305  2.412110
0.19680  0.798000  2.430000
0.19759  0.801109  2.447500
0.19838  0.804625  2.465000
0.19917  0.808578  2.482500
0.19998  0.813000  2.500000
0.20079  0.818664  2.517500
0.20160  0.824562  2.535000
0.20242  0.830430  2.552500
0.20325  0.836000  2.570000
0.20409  0.838948  2.586484
0.20493  0.841892  2.603375
0.20578  0.845390  2.621078
0.20664  0.850000  2.640000
0.20751  0.856281  2.660547
0.20838  0.862125  2.680625
0.20926  0.867656  2.700391
0.21014  0.873000  2.720000
0.21104  0.878281  2.739610
0.21194  0.883625  2.759375
0.21285  0.889156  2.779453
0.21377  0.895000  2.800000
0.21469  0.901633  2.821563
0.21563  0.908688  2.843750
0.21657  0.916148  2.866563
0.21752  0.924000  2.890000
0.21848  0.932187  2.914453
0.21944  0.940750  2.939375
0.22042  0.949688  2.964609
0.22140  0.959000  2.990000
0.22239  0.968180  3.014610
0.22340  0.977937  3.039375
0.22441  0.988477  3.064453
0.22543  1.000000  3.090000
0.22646  1.013570  3.116953
0.22750  1.028188  3.144375
0.22854  1.043711  3.172109
0.22960  1.060000  3.200000
0.23067  1.076172  3.227500
0.23175  1.093125  3.255000
0.23284  1.111016  3.282500
0.23393  1.130000  3.310000
0.23504  1.150625  3.337500
0.23616  1.172500  3.365000
0.23729  1.195625  3.392500
0.23843  1.220000  3.420000
0.23958  1.245625  3.448281
0.24075  1.272500  3.476250
0.24192  1.300625  3.503594
0.24311  1.330000  3.530000
0.24431  1.360625  3.553984
0.24552  1.392500  3.576875
0.24674  1.425625  3.598828
0.24797  1.460000  3.620000
0.24922  1.496797  3.641328
0.25048  1.534375  3.661875
0.25175  1.572266  3.681484
0.25303  1.610000  3.700000
0.25433  1.645157  3.716485
0.25564  1.680000  3.731875
0.25696  1.714844  3.746328
0.25830  1.750000  3.760000
0.25965  1.786562  3.773828
0.26102  1.823750  3.786875
0.26240  1.861562  3.798984
0.26380  1.900000  3.810000
0.26521  1.939843  3.818594
0.26663  1.979999  3.826250
0.26808  2.020156  3.833281
0.26953  2.060000  3.840000
0.27101  2.096875  3.848281
0.27249  2.133750  3.856250
0.27400  2.171250  3.863594
0.27552  2.210000  3.870000
0.27706  2.252578  3.874766
0.27862  2.296875  3.878125
0.28019  2.342734  3.879922
0.28178  2.390000  3.880000
0.28339  2.439688  3.879375
0.28502  2.490000  3.876250
0.28667  2.540313  3.870000
0.28834  2.590000  3.860000
0.29002  2.637656  3.841719
0.29173  2.683750  3.820000
0.29346  2.727969  3.795781
0.29520  2.770000  3.770000
0.29697  2.808749  3.747891
0.29876  2.845000  3.724375
0.30057  2.878750  3.698672
0.30240  2.910000  3.670000
0.30426  2.939922  3.631328
0.30614  2.966875  3.590626
0.30804  2.990391  3.549610
0.30996  3.010000  3.510000
0.31191  3.022500  3.478984
0.31389  3.031250  3.450625
0.31589  3.036875  3.424453
0.31791  3.040000  3.400000
0.31996  3.041641  3.374453
0.32204  3.041875  3.350625
0.32414  3.041172  3.328984
0.32628  3.040000  3.310000
0.32844  3.039609  3.296875
0.33063  3.039375  3.286250
0.33285  3.039453  3.277500
0.33510  3.040000  3.270000
0.33737  3.041953  3.261953
0.33969  3.044375  3.254375
0.34203  3.047109  3.247109
0.34440  3.050000  3.240000
0.34681  3.052891  3.232110
0.34925  3.055625  3.224375
0.35173  3.058047  3.216953
0.35424  3.060000  3.210000
0.35679  3.060547  3.204062
0.35938  3.060625  3.198750
0.36200  3.060391  3.194063
0.36466  3.060000  3.190000
0.36736  3.060390  3.186563
0.37011  3.060625  3.183750
0.37289  3.060547  3.181563
0.37571  3.060000  3.180000
0.37858  3.058437  3.177891
0.38149  3.056250  3.176875
0.38445  3.053437  3.177422
0.38745  3.050000  3.180000
0.39050  3.044375  3.187422
0.39360  3.038750  3.196875
0.39675  3.033750  3.207891
0.39995  3.030000  3.220000
0.40320  3.030859  3.231563
0.40651  3.033125  3.243750
0.40987  3.036328  3.256562
0.41328  3.040000  3.270000
0.41676  3.041719  3.283281
0.42029  3.043750  3.297500
0.42388  3.046406  3.312969
0.42754  3.050000  3.330000
0.43125  3.055625  3.350859
0.43504  3.062500  3.373125
0.43889  3.070625  3.396328
0.44280  3.080000  3.420000
0.44679  3.089844  3.442109
0.45086  3.101250  3.464375
0.45499  3.114532  3.486953
0.45920  3.130000  3.510000
0.46350  3.148360  3.533672
0.46787  3.169375  3.558125
0.47232  3.193203  3.583515
0.47687  3.220000  3.610000
0.48150  3.248750  3.641640
0.48622  3.281250  3.673125
0.49103  3.318125  3.703047
0.49594  3.360000  3.730000
0.50095  3.413750  3.754922
0.50606  3.471250  3.773125
0.51128  3.530625  3.782266
0.51660  3.590000  3.780000
0.52204  3.650625  3.750703
0.52760  3.706250  3.710625
0.53327  3.753750  3.662735
0.53907  3.790000  3.610000
0.54499  3.797031  3.552266
0.55105  3.792500  3.496875
0.55724  3.779219  3.448047
0.56357  3.760000  3.410000
0.57005  3.739609  3.405703
0.57668  3.718125  3.413125
0.58346  3.697578  3.428984
0.59041  3.680000  3.450000
0.59752  3.673281  3.466250
0.60481  3.671250  3.483750
0.61227  3.673594  3.501875
0.61993  3.680000  3.520000
0.62777  3.691328  3.537891
0.63582  3.705625  3.554375
0.64408  3.722109  3.568672
0.65255  3.740000  3.580000
0.66125  3.758516  3.586015
0.67019  3.776875  3.588125
0.67937  3.794297  3.586172
0.68881  3.810000  3.580000
0.69851  3.823594  3.567500
0.70849  3.833750  3.551250
0.71875  3.839531  3.531875
0.72932  3.840000  3.510000
0.74021  3.834609  3.487031
0.75143  3.821875  3.462500
0.76299  3.800703  3.436719
0.77491  3.770000  3.410000
0.78721  3.724766  3.374844
0.79990  3.669375  3.342500
0.81302  3.604297  3.316406
0.82657  3.530000  3.300000
0.84058  3.442657  3.304141
0.85507  3.348750  3.321875
0.87007  3.250469  3.353672
0.88561  3.150000  3.400000
0.90171  3.053047  3.466406
0.91841  2.956875  3.546250
0.93574  2.862266  3.637969
0.95373  2.770000  3.740000
0.97243  2.682812  3.846484
0.99188  2.598750  3.961875
1.01212  2.517812  4.086328
1.03321  2.440000  4.220000
1.05519  2.364922  4.365391
1.07813  2.293125  4.519375
1.10209  2.224766  4.681172
1.12714  2.160000  4.850000
1.15335  2.098984  5.025078
1.18081  2.041875  5.205625
1.20961  1.988828  5.390859
1.23985  1.940000  5.580000
1.27164  1.886432  5.783916
1.30511  1.832395  6.002177
1.34038  1.782160  6.234348
1.37761  1.740000  6.480000
1.41697  1.715809  6.738831
1.45865  1.685313  7.009687
1.50285  1.647227  7.292109
1.54981  1.621250  7.583750
1.59981  1.590547  7.895127
1.65314  1.539375  8.236485
1.71014  1.502998  8.601181
1.77122  1.480000  8.990000
1.83682  1.449287  9.408067
1.90746  1.417109  9.843125
1.98376  1.385908  10.301910
2.06642  1.356250  10.826870
2.15626  1.339336  11.430660
2.25428  1.345000  12.117190
2.36162  1.358477  12.823240
2.47970  1.370000  13.500000
