; From SOPRA S.A. http://www.sopra-sa.com/indices.htm
; Filename    Symbol               Range (nm)     Description
; PT          Pt                  206     2479    Platinum
; lambda/um       n         k
0.20664  1.380000  1.400000
0.20838  1.376341  1.417200
0.21014  1.371629  1.434400
0.21194  1.366657  1.451600
0.21377  1.362222  1.468799
0.21563  1.359607  1.485999
0.21752  1.359424  1.503199
0.21944  1.360000  1.520399
0.22140  1.360000  1.537599
0.22340  1.360000  1.554799
0.22543  1.360000  1.571998
0.22750  1.360000  1.589198
0.22960  1.360000  1.606399
0.23175  1.360000  1.623600
0.23393  1.360000  1.640768
0.23616  1.360000  1.657403
0.23843  1.360000  1.674870
0.24075  1.360000  1.694899
0.24311  1.360000  1.716597
0.24552  1.359450  1.738501
0.24797  1.358720  1.760001
0.25048  1.360509  1.781451
0.25303  1.369134  1.802396
0.25564  1.378055  1.824192
0.25830  1.380740  1.848591
0.26102  1.380234  1.874609
0.26380  1.381062  1.901090
0.26663  1.384910  1.927238
0.26953  1.390674  1.952125
0.27249  1.398764  1.974135
0.27552  1.407835  1.995164
0.27862  1.417090  2.016009
0.28178  1.425735  2.037464
0.28502  1.432059  2.060934
0.28834  1.436105  2.086656
0.29173  1.440762  2.112915
0.29520  1.448351  2.138182
0.29876  1.457790  2.164337
0.30240  1.470080  2.192677
0.30614  1.483260  2.223016
0.30996  1.494481  2.256483
0.31389  1.503133  2.291770
0.31791  1.511001  2.323449
0.32204  1.518559  2.345767
0.32628  1.527929  2.366163
0.33063  1.543773  2.389352
0.33510  1.561521  2.415434
0.33969  1.575190  2.445811
0.34440  1.583845  2.480156
0.34925  1.591284  2.515600
0.35424  1.599375  2.550000
0.35938  1.608390  2.584399
0.36466  1.619648  2.618799
0.37011  1.632870  2.653199
0.37571  1.648290  2.686901
0.38149  1.665487  2.720747
0.38745  1.683199  2.757659
0.39360  1.700399  2.800385
0.39995  1.717599  2.843980
0.40651  1.734266  2.882865
0.41328  1.751518  2.921356
0.42029  1.771340  2.964253
0.42754  1.793120  3.011600
0.43504  1.813714  3.059905
0.44280  1.830785  3.107205
0.45086  1.847930  3.154504
0.45920  1.868365  3.200178
0.46787  1.890196  3.247710
0.47687  1.910870  3.301998
0.48622  1.931655  3.362333
0.49594  1.957146  3.424003
0.50606  1.990570  3.484202
0.51660  2.026601  3.544401
0.52760  2.061200  3.605152
0.53907  2.095600  3.665248
0.55105  2.130000  3.721094
0.56357  2.164400  3.775832
0.57668  2.198799  3.837894
0.59041  2.233199  3.912901
0.60481  2.267599  3.994157
0.61993  2.298639  4.078156
0.63582  2.333816  4.165015
0.65255  2.383049  4.253633
0.67019  2.443794  4.343824
0.68881  2.506401  4.435471
0.70849  2.565715  4.528474
0.72932  2.627065  4.625364
0.75143  2.692612  4.729439
0.77491  2.762649  4.838404
0.79990  2.838768  4.950106
0.82657  2.920452  5.065721
0.85507  3.005323  5.187834
0.88561  3.092579  5.318040
0.91841  3.187675  5.456677
0.95373  3.294945  5.607424
0.99188  3.414894  5.764392
1.03321  3.549510  5.920446
1.07813  3.699681  6.078740
1.12714  3.865956  6.245446
1.18081  4.049131  6.424542
1.23985  4.250000  6.620000
1.30511  4.500000  6.770000
1.37761  4.770000  6.910000
1.45865  5.050000  6.980000
1.54981  5.310000  7.040000
1.65314  5.570000  7.020000
1.77122  5.710000  6.830000
1.90746  5.520000  6.660000
2.06642  5.130000  6.750000
2.25428  4.580000  7.140000
2.47970  3.910000  7.710000
