; From SOPRA S.A. http://www.sopra-sa.com/indices.htm
; Filename    Symbol               Range (nm)     Description
; RH          Rh                  206     2479    Rhodium
; lambda/um       n         k
0.20664  0.760000  1.930000
0.20838  0.771281  1.951317
0.21014  0.779182  1.968082
0.21194  0.784741  1.982373
0.21377  0.788997  1.996265
0.21563  0.794012  2.013885
0.21752  0.798648  2.032957
0.21944  0.800587  2.048844
0.22140  0.800377  2.062643
0.22340  0.800000  2.078315
0.22543  0.800000  2.096949
0.22750  0.800275  2.118343
0.22960  0.800630  2.142106
0.23175  0.799027  2.164346
0.23393  0.794135  2.182493
0.23616  0.789846  2.202692
0.23843  0.789384  2.229970
0.24075  0.789983  2.259369
0.24311  0.790000  2.288205
0.24552  0.790000  2.316008
0.24797  0.790000  2.339519
0.25048  0.790000  2.363008
0.25303  0.790000  2.392559
0.25564  0.790000  2.426091
0.25830  0.790430  2.459171
0.26102  0.790547  2.491951
0.26380  0.787612  2.527088
0.26663  0.782362  2.564731
0.26953  0.780776  2.602540
0.27249  0.785236  2.639768
0.27552  0.790670  2.678716
0.27862  0.794417  2.720714
0.28178  0.801081  2.763529
0.28502  0.815316  2.805267
0.28834  0.829462  2.848133
0.29173  0.836377  2.894958
0.29520  0.839701  2.942104
0.29876  0.839536  2.985189
0.30240  0.839483  3.027259
0.30614  0.844879  3.071405
0.30996  0.854879  3.118718
0.31389  0.867531  3.171260
0.31791  0.881796  3.227990
0.32204  0.895631  3.285201
0.32628  0.909182  3.341603
0.33063  0.926959  3.397513
0.33510  0.950551  3.453125
0.33969  0.973561  3.512073
0.34440  0.991709  3.577213
0.34925  1.011458  3.644198
0.35424  1.036875  3.710000
0.35938  1.067814  3.775802
0.36466  1.107090  3.842196
0.37011  1.151197  3.907667
0.37571  1.196282  3.970581
0.38149  1.243968  4.031136
0.38745  1.296700  4.089964
0.39360  1.353635  4.146124
0.39995  1.414052  4.197926
0.40651  1.475623  4.244974
0.41328  1.533283  4.287282
0.42029  1.585294  4.325195
0.42754  1.634827  4.360171
0.43504  1.682826  4.393250
0.44280  1.727268  4.425732
0.45086  1.767115  4.459140
0.45920  1.801262  4.491099
0.46787  1.827630  4.516929
0.47687  1.848453  4.547043
0.48622  1.864184  4.591758
0.49594  1.877330  4.647034
0.50606  1.890567  4.711901
0.51660  1.904788  4.784137
0.52760  1.920865  4.861032
0.53907  1.939835  4.941400
0.55105  1.963908  5.023285
0.56357  1.992339  5.107434
0.57668  2.020788  5.197586
0.59041  2.048357  5.295231
0.60481  2.079270  5.399506
0.61993  2.115602  5.510406
0.63582  2.156467  5.627814
0.65255  2.202153  5.751435
0.67019  2.250964  5.882925
0.68881  2.298470  6.025032
0.70849  2.353489  6.173856
0.72932  2.426399  6.326744
0.75143  2.509600  6.483036
0.77491  2.595050  6.640725
0.79990  2.685421  6.801052
0.82657  2.785246  6.967250
0.85507  2.894074  7.136986
0.88561  3.010415  7.305285
0.91841  3.132685  7.470117
0.95373  3.260769  7.630011
0.99188  3.390627  7.784910
1.03321  3.507148  7.938704
1.07813  3.599651  8.094261
1.12714  3.667061  8.262453
1.18081  3.705227  8.451596
1.23985  3.710000  8.670000
1.30511  3.690000  8.940000
1.37761  3.620000  9.360000
1.45865  3.640000  9.810000
1.54981  3.630000  10.300000
1.65314  3.630000  11.000000
1.77122  3.670000  11.700000
1.90746  3.770000  12.600000
2.06642  3.870000  13.500000
2.25428  3.970000  14.700000
2.47970  4.200000  16.100000
