; From SOPRA S.A. http://www.sopra-sa.com/indices.htm
; Filename    Symbol               Range (nm)     Description
; SION40      SiO0.6N0.4          250      800    Silicon Oxynitride (40% N)
; lambda/um       n         k
0.25000  1.721728  0.004142
0.25500  1.716423  0.002720
0.26000  1.710673  0.001521
0.26500  1.705090  0.000597
0.27000  1.700288  0.000000
0.27500  1.698043  0.000095
0.28000  1.695477  0.000000
0.28500  1.689117  0.000000
0.29000  1.682529  0.000000
0.29500  1.678783  0.000000
0.30000  1.675893  0.000000
0.30500  1.672661  0.000000
0.31000  1.669798  0.000000
0.31500  1.667940  0.000000
0.32000  1.666109  0.000000
0.32500  1.663151  0.000000
0.33000  1.660225  0.000000
0.33500  1.658343  0.000000
0.34000  1.656790  0.000000
0.34500  1.655137  0.000000
0.35000  1.653539  0.000000
0.35500  1.652013  0.000000
0.36000  1.650540  0.000000
0.36500  1.649116  0.000000
0.37000  1.647718  0.000000
0.37500  1.646278  0.000000
0.38000  1.644932  0.000000
0.38500  1.643847  0.000000
0.39000  1.642862  0.000000
0.39500  1.641889  0.000000
0.40000  1.640885  0.000000
0.40500  1.639691  0.000000
0.41000  1.638568  0.000000
0.41500  1.637859  0.000000
0.42000  1.637164  0.000000
0.42500  1.636088  0.000000
0.43000  1.634958  0.000000
0.43500  1.633911  0.000000
0.44000  1.633129  0.000000
0.44500  1.633050  0.000000
0.45000  1.633042  0.000000
0.45500  1.632540  0.000000
0.46000  1.631779  0.000000
0.46500  1.630704  0.000000
0.47000  1.629627  0.000000
0.47500  1.628923  0.000000
0.48000  1.628354  0.000000
0.48500  1.627826  0.000000
0.49000  1.627277  0.000000
0.49500  1.626573  0.000000
0.50000  1.625830  0.000000
0.50500  1.625113  0.000000
0.51000  1.624449  0.000000
0.51500  1.623911  0.000000
0.52000  1.623433  0.000000
0.52500  1.622987  0.000000
0.53000  1.622540  0.000000
0.53500  1.622047  0.000000
0.54000  1.621519  0.000000
0.54500  1.620902  0.000000
0.55000  1.620341  0.000000
0.55500  1.619967  0.000000
0.56000  1.619764  0.000000
0.56500  1.619834  0.000000
0.57000  1.619948  0.000000
0.57500  1.619899  0.000000
0.58000  1.619728  0.000000
0.58500  1.619412  0.000000
0.59000  1.618942  0.000000
0.59500  1.618234  0.000000
0.60000  1.617486  0.000000
0.60500  1.616895  0.000000
0.61000  1.616386  0.000000
0.61500  1.615959  0.000000
0.62000  1.615584  0.000000
0.62500  1.615215  0.000000
0.63000  1.614898  0.000000
0.63500  1.614674  0.000000
0.64000  1.614510  0.000000
0.64500  1.614367  0.000000
0.65000  1.614302  0.000000
0.65500  1.614408  0.000000
0.66000  1.614537  0.000000
0.66500  1.614559  0.000000
0.67000  1.614505  0.000000
0.67500  1.614356  0.000000
0.68000  1.614129  0.000000
0.68500  1.613837  0.000000
0.69000  1.613469  0.000000
0.69500  1.612988  0.000000
0.70000  1.612483  0.000000
0.70500  1.612045  0.000000
0.71000  1.611639  0.000000
0.71500  1.611262  0.000000
0.72000  1.610914  0.000000
0.72500  1.610591  0.000000
0.73000  1.610296  0.000000
0.73500  1.610035  0.000000
0.74000  1.609795  0.000000
0.74500  1.609561  0.000000
0.75000  1.609338  0.000000
0.75500  1.609125  0.000000
0.76000  1.608923  0.000000
0.76500  1.608732  0.000000
0.77000  1.608547  0.000000
0.77500  1.608363  0.000000
0.78000  1.608185  0.000000
0.78500  1.608016  0.000000
0.79000  1.607857  0.000000
0.79500  1.607712  0.000000
0.80000  1.607583  0.000000
