; From SOPRA S.A. http://www.sopra-sa.com/indices.htm
; Filename    Symbol               Range (nm)     Description
; SION0       SiO                 250      800    Silicon Oxynitride (10% N)                  *
; lambda/um       n         k
0.25000  1.539171  0.000615
0.25500  1.536160  0.000192
0.26000  1.533271  0.000000
0.26500  1.530562  0.000038
0.27000  1.528090  0.000000
0.27500  1.526056  0.000000
0.28000  1.524084  0.000000
0.28500  1.521714  0.000000
0.29000  1.519405  0.000000
0.29500  1.517552  0.000000
0.30000  1.515888  0.000000
0.30500  1.514243  0.000000
0.31000  1.512721  0.000000
0.31500  1.511423  0.000000
0.32000  1.510187  0.000000
0.32500  1.508830  0.000000
0.33000  1.507523  0.000000
0.33500  1.506418  0.000000
0.34000  1.505395  0.000000
0.34500  1.504373  0.000000
0.35000  1.503393  0.000000
0.35500  1.502482  0.000000
0.36000  1.501606  0.000000
0.36500  1.500724  0.000000
0.37000  1.499879  0.000000
0.37500  1.499114  0.000000
0.38000  1.498396  0.000000
0.38500  1.497712  0.000000
0.39000  1.497050  0.000000
0.39500  1.496395  0.000000
0.40000  1.495753  0.000000
0.40500  1.495111  0.000000
0.41000  1.494505  0.000000
0.41500  1.493992  0.000000
0.42000  1.493498  0.000000
0.42500  1.492949  0.000000
0.43000  1.492403  0.000000
0.43500  1.491881  0.000000
0.44000  1.491413  0.000000
0.44500  1.491072  0.000000
0.45000  1.490754  0.000000
0.45500  1.490366  0.000000
0.46000  1.489947  0.000000
0.46500  1.489485  0.000000
0.47000  1.489036  0.000000
0.47500  1.488672  0.000000
0.48000  1.488340  0.000000
0.48500  1.488019  0.000000
0.49000  1.487692  0.000000
0.49500  1.487324  0.000000
0.50000  1.486949  0.000000
0.50500  1.486587  0.000000
0.51000  1.486247  0.000000
0.51500  1.485949  0.000000
0.52000  1.485674  0.000000
0.52500  1.485413  0.000000
0.53000  1.485160  0.000000
0.53500  1.484902  0.000000
0.54000  1.484643  0.000000
0.54500  1.484374  0.000000
0.55000  1.484117  0.000000
0.55500  1.483889  0.000000
0.56000  1.483689  0.000000
0.56500  1.483533  0.000000
0.57000  1.483387  0.000000
0.57500  1.483218  0.000000
0.58000  1.483034  0.000000
0.58500  1.482831  0.000000
0.59000  1.482606  0.000000
0.59500  1.482346  0.000000
0.60000  1.482083  0.000000
0.60500  1.481851  0.000000
0.61000  1.481636  0.000000
0.61500  1.481439  0.000000
0.62000  1.481254  0.000000
0.62500  1.481077  0.000000
0.63000  1.480911  0.000000
0.63500  1.480759  0.000000
0.64000  1.480618  0.000000
0.64500  1.480482  0.000000
0.65000  1.480359  0.000000
0.65500  1.480262  0.000000
0.66000  1.480169  0.000000
0.66500  1.480063  0.000000
0.67000  1.479948  0.000000
0.67500  1.479821  0.000000
0.68000  1.479684  0.000000
0.68500  1.479540  0.000000
0.69000  1.479386  0.000000
0.69500  1.479217  0.000000
0.70000  1.479047  0.000000
0.70500  1.478887  0.000000
0.71000  1.478734  0.000000
0.71500  1.478585  0.000000
0.72000  1.478442  0.000000
0.72500  1.478304  0.000000
0.73000  1.478172  0.000000
0.73500  1.478045  0.000000
0.74000  1.477923  0.000000
0.74500  1.477803  0.000000
0.75000  1.477685  0.000000
0.75500  1.477570  0.000000
0.76000  1.477458  0.000000
0.76500  1.477349  0.000000
0.77000  1.477241  0.000000
0.77500  1.477133  0.000000
0.78000  1.477027  0.000000
0.78500  1.476923  0.000000
0.79000  1.476822  0.000000
0.79500  1.476725  0.000000
0.80000  1.476631  0.000000
