; From SOPRA S.A. http://www.sopra-sa.com/indices.htm
; Filename    Symbol               Range (nm)     Description
; SIOP        SiO                 190     1907    Silicon Monoxide
; lambda/um       n         k
0.19075  1.746000  0.734800
0.19223  1.754325  0.733009
0.19373  1.762632  0.731016
0.19525  1.770928  0.728826
0.19680  1.779216  0.726444
0.19838  1.787500  0.723875
0.19998  1.795784  0.721124
0.20160  1.804072  0.718197
0.20325  1.812368  0.715096
0.20493  1.820676  0.711829
0.20664  1.829000  0.708400
0.20838  1.837344  0.704814
0.21014  1.845712  0.701076
0.21194  1.854108  0.697191
0.21377  1.862536  0.693164
0.21563  1.871005  0.689007
0.21752  1.879551  0.684787
0.21944  1.888136  0.680428
0.22140  1.896744  0.675904
0.22340  1.905369  0.671200
0.22543  1.913993  0.666293
0.22750  1.922569  0.661119
0.22960  1.931144  0.655725
0.23175  1.939737  0.650123
0.23393  1.948350  0.644313
0.23616  1.957022  0.638318
0.23843  1.965854  0.632215
0.24075  1.974723  0.625901
0.24311  1.983558  0.619314
0.24552  1.992331  0.612428
0.24797  2.000976  0.605165
0.25048  2.009397  0.597401
0.25303  2.017679  0.589282
0.25564  2.025875  0.580900
0.25830  2.034026  0.572334
0.26102  2.042206  0.563705
0.26380  2.050313  0.554894
0.26663  2.058261  0.545808
0.26953  2.065971  0.536364
0.27249  2.073341  0.526448
0.27552  2.080438  0.516163
0.27862  2.087320  0.505600
0.28178  2.094008  0.494826
0.28502  2.100530  0.483923
0.28834  2.106875  0.472831
0.29173  2.113028  0.461494
0.29520  2.119023  0.449904
0.29876  2.124894  0.438049
0.30240  2.130563  0.425900
0.30614  2.135943  0.413431
0.30996  2.141016  0.400561
0.31389  2.145755  0.387219
0.31791  2.150063  0.373500
0.32204  2.153847  0.359512
0.32628  2.156926  0.345306
0.33063  2.159137  0.330943
0.33510  2.160625  0.316450
0.33969  2.161548  0.301854
0.34440  2.162091  0.287213
0.34925  2.162415  0.272579
0.35424  2.162312  0.257950
0.35938  2.161551  0.243329
0.36466  2.159926  0.228639
0.37011  2.157245  0.213826
0.37571  2.153625  0.199088
0.38149  2.149213  0.184633
0.38745  2.143944  0.170638
0.39360  2.137781  0.157275
0.39995  2.130937  0.144554
0.40651  2.123623  0.132466
0.41328  2.116055  0.121152
0.42029  2.108446  0.110735
0.42754  2.100750  0.101095
0.43504  2.092921  0.092113
0.44280  2.085008  0.083723
0.45086  2.077054  0.075852
0.45920  2.069062  0.068512
0.46787  2.061044  0.061711
0.47687  2.052971  0.055447
0.48622  2.044808  0.049717
0.49594  2.036687  0.044478
0.50606  2.028716  0.039692
0.51660  2.021055  0.035333
0.52760  2.013892  0.031378
0.53907  2.007062  0.027785
0.55105  2.000452  0.024516
0.56357  1.993969  0.021520
0.57668  1.987488  0.018738
0.59041  1.981124  0.016185
0.60481  1.974948  0.013860
0.61993  1.969023  0.011749
0.63582  1.963452  0.009833
0.65255  1.958125  0.008111
0.67019  1.952988  0.006579
0.68881  1.947985  0.005230
0.70849  1.943025  0.004060
0.72932  1.938188  0.003057
0.75143  1.933511  0.002210
0.77491  1.928988  0.001510
0.79990  1.924566  0.000947
0.82657  1.920379  0.000514
0.85507  1.916500  0.000201
0.88561  1.913017  0.000001
0.91841  1.910111  0.000000
0.95373  1.907592  0.000000
0.99188  1.905402  0.000000
1.03321  1.903502  0.000000
1.07813  1.901856  0.000000
1.12714  1.900424  0.000000
1.18081  1.899167  0.000000
1.23985  1.898046  0.000000
1.30511  1.897026  0.000000
1.37761  1.896065  0.000000
1.45865  1.895128  0.000000
1.54981  1.894173  0.000000
1.65314  1.893162  0.000000
1.77122  1.892059  0.000000
1.90746  1.890823  0.000000
