; From SOPRA S.A. http://www.sopra-sa.com/indices.htm
; Filename    Symbol               Range (nm)     Description
; TAOX2       Ta2O3               250      850    Tantalum Oxide
; lambda/um       n         k
0.25000  2.196196  0.000000
0.25500  2.169578  0.000000
0.26000  2.145283  0.000000
0.26500  2.123065  0.000000
0.27000  2.102708  0.000000
0.27500  2.084022  0.000000
0.28000  2.066839  0.000000
0.28500  2.051011  0.000000
0.29000  2.036408  0.000000
0.29500  2.022913  0.000000
0.30000  2.010423  0.000000
0.30500  1.998846  0.000000
0.31000  1.988101  0.000000
0.31500  1.978112  0.000000
0.32000  1.968816  0.000000
0.32500  1.960152  0.000000
0.33000  1.952067  0.000000
0.33500  1.944513  0.000000
0.34000  1.937447  0.000000
0.34500  1.930830  0.000000
0.35000  1.924626  0.000000
0.35500  1.918803  0.000000
0.36000  1.913333  0.000000
0.36500  1.908188  0.000000
0.37000  1.903344  0.000000
0.37500  1.898780  0.000000
0.38000  1.894474  0.000000
0.38500  1.890409  0.000000
0.39000  1.886568  0.000000
0.39500  1.882935  0.000000
0.40000  1.879496  0.000000
0.40500  1.876238  0.000000
0.41000  1.873149  0.000000
0.41500  1.870218  0.000000
0.42000  1.867435  0.000000
0.42500  1.864790  0.000000
0.43000  1.862274  0.000000
0.43500  1.859880  0.000000
0.44000  1.857600  0.000000
0.44500  1.855428  0.000000
0.45000  1.853356  0.000000
0.45500  1.851379  0.000000
0.46000  1.849491  0.000000
0.46500  1.847687  0.000000
0.47000  1.845963  0.000000
0.47500  1.844314  0.000000
0.48000  1.842735  0.000000
0.48500  1.841223  0.000000
0.49000  1.839775  0.000000
0.49500  1.838386  0.000000
0.50000  1.837054  0.000000
0.50500  1.835776  0.000000
0.51000  1.834548  0.000000
0.51500  1.833369  0.000000
0.52000  1.832236  0.000000
0.52500  1.831146  0.000000
0.53000  1.830097  0.000000
0.53500  1.829088  0.000000
0.54000  1.828117  0.000000
0.54500  1.827181  0.000000
0.55000  1.826279  0.000000
0.55500  1.825409  0.000000
0.56000  1.824570  0.000000
0.56500  1.823761  0.000000
0.57000  1.822980  0.000000
0.57500  1.822225  0.000000
0.58000  1.821496  0.000000
0.58500  1.820792  0.000000
0.59000  1.820111  0.000000
0.59500  1.819453  0.000000
0.60000  1.818816  0.000000
0.60500  1.818199  0.000000
0.61000  1.817602  0.000000
0.61500  1.817024  0.000000
0.62000  1.816464  0.000000
0.62500  1.815922  0.000000
0.63000  1.815396  0.000000
0.63500  1.814886  0.000000
0.64000  1.814391  0.000000
0.64500  1.813911  0.000000
0.65000  1.813445  0.000000
0.65500  1.812993  0.000000
0.66000  1.812554  0.000000
0.66500  1.812127  0.000000
0.67000  1.811713  0.000000
0.67500  1.811310  0.000000
0.68000  1.810919  0.000000
0.68500  1.810538  0.000000
0.69000  1.810168  0.000000
0.69500  1.809808  0.000000
0.70000  1.809457  0.000000
0.70500  1.809116  0.000000
0.71000  1.808784  0.000000
0.71500  1.808460  0.000000
0.72000  1.808145  0.000000
0.72500  1.807838  0.000000
0.73000  1.807539  0.000000
0.73500  1.807247  0.000000
0.74000  1.806963  0.000000
0.74500  1.806686  0.000000
0.75000  1.806415  0.000000
0.75500  1.806151  0.000000
0.76000  1.805894  0.000000
0.76500  1.805643  0.000000
0.77000  1.805398  0.000000
0.77500  1.805158  0.000000
0.78000  1.804925  0.000000
0.78500  1.804696  0.000000
0.79000  1.804473  0.000000
0.79500  1.804255  0.000000
0.80000  1.804043  0.000000
0.80500  1.803834  0.000000
0.81000  1.803631  0.000000
0.81500  1.803432  0.000000
0.82000  1.803238  0.000000
0.82500  1.803047  0.000000
0.83000  1.802861  0.000000
0.83500  1.802679  0.000000
0.84000  1.802501  0.000000
0.84500  1.802327  0.000000
0.85000  1.802156  0.000000
