; From SOPRA S.A. http://www.sopra-sa.com/indices.htm
; Filename    Symbol               Range (nm)     Description
; TASI2-A     TaSi2               123    24797    Tantalum Silicide (perpendicular to c axis)
; lambda/um       n         k
0.12399  0.383000  0.920000
0.12461  0.388313  0.927813
0.12524  0.388000  0.936000
0.12587  0.384438  0.944937
0.12652  0.380000  0.955000
0.12716  0.378125  0.967375
0.12782  0.378000  0.980000
0.12848  0.380813  0.991000
0.12915  0.384000  1.001000
0.12983  0.385000  1.009562
0.13051  0.385000  1.018000
0.13120  0.384063  1.027812
0.13190  0.383000  1.038000
0.13260  0.383063  1.047687
0.13332  0.383000  1.058000
0.13404  0.381000  1.070562
0.13477  0.380000  1.083000
0.13550  0.384063  1.092750
0.13625  0.388000  1.102000
0.13700  0.386500  1.112063
0.13776  0.384000  1.123000
0.13853  0.383500  1.135625
0.13931  0.384000  1.149000
0.14010  0.385625  1.162875
0.14089  0.388000  1.176000
0.14170  0.391375  1.186250
0.14251  0.394000  1.196000
0.14334  0.393438  1.206813
0.14417  0.392000  1.219000
0.14501  0.390875  1.234187
0.14586  0.391000  1.250000
0.14673  0.394688  1.264250
0.14760  0.399000  1.278000
0.14849  0.401188  1.291500
0.14938  0.403000  1.305000
0.15029  0.405500  1.318625
0.15120  0.408000  1.333000
0.15213  0.409563  1.349063
0.15307  0.412000  1.366000
0.15402  0.417813  1.384000
0.15498  0.424000  1.401000
0.15596  0.427875  1.413687
0.15694  0.431000  1.426000
0.15794  0.433750  1.441375
0.15896  0.437000  1.458000
0.15998  0.441813  1.475313
0.16102  0.448000  1.493000
0.16207  0.456375  1.510875
0.16314  0.465000  1.528000
0.16422  0.471750  1.542625
0.16531  0.478000  1.557000
0.16642  0.484375  1.573375
0.16755  0.491000  1.590000
0.16869  0.498563  1.605563
0.16984  0.506000  1.621000
0.17101  0.512063  1.636625
0.17220  0.518000  1.653000
0.17341  0.525187  1.671062
0.17463  0.532000  1.690000
0.17587  0.535750  1.709000
0.17712  0.541000  1.729000
0.17840  0.552875  1.751688
0.17969  0.567000  1.774000
0.18100  0.580313  1.792438
0.18233  0.594000  1.810000
0.18368  0.608563  1.829063
0.18505  0.623000  1.848000
0.18644  0.636187  1.865812
0.18786  0.649000  1.883000
0.18929  0.661875  1.899437
0.19075  0.675000  1.916000
0.19223  0.688938  1.933438
0.19373  0.703000  1.952000
0.19525  0.716000  1.972875
0.19680  0.730000  1.994000
0.19838  0.747688  2.013250
0.19998  0.766000  2.032000
0.20160  0.781625  2.051437
0.20325  0.798000  2.070000
0.20493  0.818687  2.085312
0.20664  0.840000  2.101000
0.20838  0.858375  2.121000
0.21014  0.877000  2.142000
0.21194  0.898938  2.161875
0.21377  0.921000  2.181000
0.21563  0.938938  2.198625
0.21752  0.959000  2.216000
0.21944  0.988812  2.235000
0.22140  1.020000  2.253000
0.22340  1.045000  2.266812
0.22543  1.069000  2.280000
0.22750  1.095188  2.296000
0.22960  1.122000  2.312000
0.23175  1.148688  2.326125
0.23393  1.176000  2.339000
0.23616  1.204875  2.350625
0.23843  1.234000  2.361000
0.24075  1.262437  2.370500
0.24311  1.290000  2.378000
0.24552  1.315375  2.381500
0.24797  1.341000  2.384000
0.25048  1.370438  2.388187
0.25303  1.399000  2.393000
0.25564  1.421625  2.398937
0.25830  1.443000  2.404000
0.26102  1.468500  2.404875
0.26380  1.491000  2.406000
0.26663  1.500937  2.410750
0.26953  1.511000  2.419000
0.27249  1.534000  2.433500
0.27552  1.560000  2.449000
0.27862  1.581875  2.460187
0.28178  1.604000  2.470000
0.28502  1.629813  2.479563
0.28834  1.655000  2.489000
0.29173  1.675188  2.498625
0.29520  1.694000  2.509000
0.29876  1.714062  2.519625
0.30240  1.734000  2.534000
0.30614  1.751625  2.557062
0.30996  1.772000  2.584000
0.31389  1.799750  2.612188
0.31791  1.834000  2.640000
0.32204  1.876063  2.665500
0.32628  1.924000  2.687000
0.33063  1.978625  2.701125
0.33510  2.033000  2.711000
0.33969  2.077312  2.719562
0.34440  2.121000  2.724000
0.34925  2.173187  2.721250
0.35424  2.225000  2.715000
0.35938  2.270375  2.708563
0.36466  2.310000  2.700000
0.37011  2.340375  2.686563
0.37571  2.368000  2.674000
0.38149  2.399437  2.668500
0.38745  2.431000  2.666000
0.39360  2.461812  2.664312
0.39995  2.490000  2.664000
0.40651  2.511188  2.664125
0.41328  2.532000  2.667000
0.42029  2.558438  2.675063
0.42754  2.588000  2.687000
0.43504  2.620375  2.703500
0.44280  2.655000  2.721000
0.45086  2.689750  2.733875
0.45920  2.729000  2.749000
0.46787  2.777187  2.774562
0.47687  2.832000  2.801000
0.48622  2.892313  2.820938
0.49594  2.959000  2.836000
0.50606  3.033188  2.845375
0.51660  3.113000  2.849000
0.52760  3.197188  2.848625
0.53907  3.285000  2.838000
0.55105  3.378125  2.810125
0.56357  3.468000  2.769000
0.57668  3.545937  2.714375
0.59041  3.614000  2.652000
0.60481  3.671250  2.588000
0.61993  3.718000  2.521000
0.63582  3.754437  2.450375
0.65255  3.780000  2.380000
0.67019  3.793250  2.313000
0.68881  3.797000  2.251000
0.70849  3.790125  2.197187
0.72932  3.783000  2.150000
0.75143  3.797125  2.106437
0.77491  3.798000  2.074000
0.79990  3.735250  2.059062
0.82657  3.678000  2.062000
0.85507  3.698562  2.100625
0.88561  3.737000  2.129000
0.91841  3.753125  2.091813
0.95373  3.760000  2.035000
0.99188  3.761375  1.989563
1.03321  3.745000  1.945000
1.07813  3.702750  1.899750
1.12714  3.626000  1.858000
1.18081  3.502000  1.809937
1.23985  3.335000  1.796000
1.30511  3.110563  1.849750
1.37761  2.872000  1.982000
1.45865  2.653438  2.224312
1.54981  2.468000  2.548000
1.65314  2.340625  2.938688
1.77122  2.270000  3.385000
1.90746  2.262812  3.866125
2.06642  2.320000  4.396000
2.25428  2.442062  4.978375
2.47970  2.637000  5.623000
2.75523  2.903750  6.327312
3.09963  3.270000  7.132000
3.54243  3.733187  8.031938
4.13284  4.383000  9.162000
4.95941  5.256000  10.683750
6.19926  6.509000  12.512000
8.26568  8.268749  14.623250
12.39852  10.662000  16.994000
24.79704  17.441000  27.576000
