; From SOPRA S.A. http://www.sopra-sa.com/indices.htm
; Filename    Symbol               Range (nm)     Description
; VSI2-B      VSi2                253    24797    Vanadium Silicide (parallel to c axis)
; lambda/um       n         k
0.25303  2.688000  3.368000
0.25564  2.663562  3.359688
0.25830  2.659000  3.397000
0.26102  2.675420  3.455098
0.26380  2.714700  3.507622
0.26663  2.784151  3.517579
0.26953  2.860976  3.505273
0.27249  2.923276  3.482647
0.27552  2.976596  3.451813
0.27862  3.022354  3.415591
0.28178  3.069367  3.381987
0.28502  3.127212  3.359376
0.28834  3.183326  3.342220
0.29173  3.225458  3.325285
0.29520  3.264470  3.300515
0.29876  3.311031  3.260438
0.30240  3.358201  3.212516
0.30614  3.398689  3.164992
0.30996  3.433982  3.121062
0.31389  3.466317  3.082361
0.31791  3.497517  3.041228
0.32204  3.528834  2.990766
0.32628  3.557735  2.939419
0.33063  3.581345  2.896071
0.33510  3.598562  2.857867
0.33969  3.609305  2.820162
0.34440  3.616473  2.780414
0.34925  3.622959  2.737071
0.35424  3.627870  2.692018
0.35938  3.629852  2.648049
0.36466  3.628840  2.607071
0.37011  3.625135  2.570821
0.37571  3.620050  2.541699
0.38149  3.614989  2.521174
0.38745  3.611429  2.504648
0.39360  3.610451  2.487264
0.39995  3.608685  2.467355
0.40651  3.602697  2.443612
0.41328  3.592726  2.422737
0.42029  3.578874  2.411695
0.42754  3.565462  2.405675
0.43504  3.557280  2.399995
0.44280  3.549705  2.397121
0.45086  3.538039  2.399261
0.45920  3.526176  2.404922
0.46787  3.518082  2.412559
0.47687  3.509899  2.424024
0.48622  3.497309  2.441002
0.49594  3.485000  2.463000
0.50606  3.477058  2.489439
0.51660  3.471952  2.522023
0.52760  3.468573  2.562367
0.53907  3.470031  2.610093
0.55105  3.478808  2.665984
0.56357  3.495947  2.726916
0.57668  3.522498  2.790074
0.59041  3.561207  2.855079
0.60481  3.614996  2.921413
0.61993  3.683440  2.987154
0.63582  3.766761  3.050628
0.65255  3.857915  3.107629
0.67019  3.949909  3.153955
0.68881  4.049919  3.190490
0.70849  4.164872  3.218067
0.72932  4.293682  3.231168
0.75143  4.433327  3.224600
0.77491  4.562752  3.201850
0.79990  4.663530  3.166589
0.82657  4.756118  3.111618
0.85507  4.861197  3.031711
0.88561  4.963165  2.943066
0.91841  5.043208  2.861046
0.95373  5.102297  2.774387
0.99188  5.142005  2.671670
1.03321  5.149824  2.559108
1.07813  5.115746  2.449166
1.12714  5.036553  2.370244
1.18081  4.918892  2.345828
1.23985  4.824125  2.361133
1.30511  4.802794  2.396051
1.37761  4.778214  2.435656
1.45865  4.670980  2.471298
1.54981  4.520787  2.546523
1.65314  4.374341  2.705033
1.77122  4.241212  2.911618
1.90746  4.130041  3.131266
2.06642  4.004439  3.405765
2.25428  3.826333  3.775403
2.47970  3.667606  4.314311
2.75523  3.594223  5.103820
3.09963  3.670258  6.101770
3.54243  3.958409  7.271719
4.13284  4.531684  8.636275
4.95941  5.530188  10.183780
6.19926  6.694000  12.054000
8.26568  7.837812  14.358060
12.39852  8.787001  17.203000
24.79704  19.539000  30.673000
