; From SOPRA S.A. http://www.sopra-sa.com/indices.htm
; Filename    Symbol               Range (nm)     Description
; Y2O3        Y2O3                206     2479    Yttrium Oxide
; lambda/um       n         k
0.20664  2.386000  0.000000
0.20838  2.372000  0.000000
0.21014  2.359000  0.000000
0.21194  2.346750  0.000000
0.21377  2.335000  0.000000
0.21563  2.323375  0.000000
0.21752  2.312000  0.000000
0.21944  2.300875  0.000000
0.22140  2.290000  0.000000
0.22340  2.279375  -0.000001
0.22543  2.269000  0.000000
0.22750  2.258875  0.000005
0.22960  2.249000  0.000009
0.23175  2.239312  0.000009
0.23393  2.230000  0.000008
0.23616  2.221375  0.000008
0.23843  2.213000  0.000007
0.24075  2.204437  0.000007
0.24311  2.196000  0.000006
0.24552  2.187938  0.000005
0.24797  2.180000  0.000005
0.25048  2.171875  0.000005
0.25303  2.164000  0.000005
0.25564  2.156875  0.000004
0.25830  2.150000  0.000004
0.26102  2.142938  0.000004
0.26380  2.136000  0.000004
0.26663  2.129437  0.000004
0.26953  2.123000  0.000003
0.27249  2.116437  0.000003
0.27552  2.110000  0.000003
0.27862  2.103937  0.000002
0.28178  2.098000  0.000002
0.28502  2.091937  0.000002
0.28834  2.086000  0.000002
0.29173  2.080375  0.000002
0.29520  2.075000  0.000002
0.29876  2.069937  0.000002
0.30240  2.065000  0.000001
0.30614  2.060000  0.000001
0.30996  2.055000  0.000001
0.31389  2.049938  0.000001
0.31791  2.045000  0.000001
0.32204  2.040437  0.000001
0.32628  2.036000  0.000001
0.33063  2.031437  0.000001
0.33510  2.027000  0.000000
0.33969  2.022938  0.000000
0.34440  2.019000  0.000000
0.34925  2.015000  0.000000
0.35424  2.011000  0.000000
0.35938  2.006938  0.000000
0.36466  2.003000  0.000000
0.37011  1.999437  0.000000
0.37571  1.996000  0.000000
0.38149  1.992500  0.000000
0.38745  1.989000  0.000000
0.39360  1.985437  0.000000
0.39995  1.982000  0.000000
0.40651  1.978938  0.000000
0.41328  1.976000  0.000000
0.42029  1.973000  0.000000
0.42754  1.970000  0.000000
0.43504  1.967000  0.000000
0.44280  1.964000  0.000000
0.45086  1.960937  0.000000
0.45920  1.958000  0.000000
0.46787  1.955437  0.000000
0.47687  1.953000  0.000000
0.48622  1.950500  0.000000
0.49594  1.948000  0.000000
0.50606  1.945500  0.000000
0.51660  1.942979  0.000000
0.52760  1.940551  0.000000
0.53907  1.938417  0.000000
0.55105  1.936123  0.000000
0.56357  1.934000  0.000000
0.57668  1.932198  0.000000
0.59041  1.930000  0.000000
0.60481  1.928000  0.000000
0.61993  1.926000  0.000000
0.63582  1.924690  0.000000
0.65255  1.922228  0.000000
0.67019  1.920677  0.000000
0.68881  1.919065  0.000000
0.70849  1.917452  0.000000
0.72932  1.915839  0.000000
0.75143  1.914226  0.000000
0.77491  1.912613  0.000000
0.79990  1.911000  0.000000
0.82657  1.909340  0.000000
0.85507  1.908396  0.000000
0.88561  1.907225  0.000000
0.91841  1.905620  0.000000
0.95373  1.904389  0.000000
0.99188  1.903235  0.000000
1.03321  1.901942  0.000000
1.07813  1.900588  0.000000
1.12714  1.899236  0.000000
1.18081  1.898150  0.000000
1.23985  1.897195  0.000000
1.30511  1.896174  0.000000
1.37761  1.894698  0.000000
1.45865  1.893194  0.000000
1.54981  1.892121  0.000000
1.65314  1.891130  0.000000
1.77122  1.889969  0.000000
1.90746  1.888091  0.000000
2.06642  1.885693  0.000000
2.25428  1.883669  0.000000
2.47970  1.881237  0.000000
