; From SOPRA S.A. http://www.sopra-sa.com/indices.htm
; Filename    Symbol               Range (nm)     Description
; ZRO2        ZrO2                250      850    Zirconium Oxide
; lambda/um       n         k
0.25000  2.645987  0.000000
0.26000  2.602540  0.000000
0.27000  2.560349  0.000000
0.28000  2.520518  0.000000
0.29000  2.483872  0.000000
0.30000  2.450891  0.000000
0.31000  2.421708  0.000000
0.32000  2.396158  0.000000
0.33000  2.373872  0.000000
0.34000  2.354373  0.000000
0.35000  2.337176  0.000000
0.36000  2.321855  0.000000
0.37000  2.308074  0.000000
0.38000  2.295607  0.000000
0.39000  2.284314  0.000000
0.40000  2.274125  0.000000
0.41000  2.265008  0.000000
0.42000  2.256948  0.000000
0.43000  2.249925  0.000000
0.44000  2.243907  0.000000
0.45000  2.238840  0.000000
0.46000  2.234651  0.000000
0.47000  2.231248  0.000000
0.48000  2.228526  0.000000
0.49000  2.226371  0.000000
0.50000  2.224667  0.000000
0.51000  2.223300  0.000000
0.52000  2.222164  0.000000
0.53000  2.221166  0.000000
0.54000  2.220222  0.000000
0.55000  2.219266  0.000000
0.56000  2.218247  0.000000
0.57000  2.217131  0.000000
0.58000  2.215897  0.000000
0.59000  2.214538  0.000000
0.60000  2.213061  0.000000
0.61000  2.211480  0.000000
0.62000  2.209815  0.000000
0.63000  2.208090  0.000000
0.64000  2.206327  0.000000
0.65000  2.204549  0.000000
0.66000  2.202774  0.000000
0.67000  2.201017  0.000000
0.68000  2.199288  0.000000
0.69000  2.197595  0.000000
0.70000  2.195942  0.000000
0.71000  2.194330  0.000000
0.72000  2.192760  0.000000
0.73000  2.191232  0.000000
0.74000  2.189747  0.000000
0.75000  2.188303  0.000000
0.76000  2.186899  0.000000
0.77000  2.185531  0.000000
0.78000  2.184192  0.000000
0.79000  2.182873  0.000000
0.80000  2.181560  0.000000
0.81000  2.180242  0.000000
0.82000  2.178911  0.000000
0.83000  2.177562  0.000000
0.84000  2.176197  0.000000
0.85000  2.174822  0.000000
