; Refractive index spectrum of a titanium dioxide film
; prepared with a Denton Vacuum Discovery 550 Sputtering System
; Q. Wang,  NIST, December 2014
;
; Sputter process conditions:
; RF power:    400 W
; Ar flow:     50 cm^3/s
; Ar pressure: 7 mTorr (1 Pa)
;
; lambda/um    n       k
0.3006  3.08196  0.75477
0.3022  3.10428  0.73295
0.3038  3.12315  0.70734
0.3054  3.13784  0.67910
0.3070  3.14799  0.65000
0.3086  3.15450  0.62191
0.3102  3.15951  0.59530
0.3118  3.16401  0.56884
0.3134  3.16739  0.54151
0.3150  3.16874  0.51368
0.3165  3.16804  0.48611
0.3181  3.16580  0.45915
0.3197  3.16234  0.43266
0.3213  3.15765  0.40649
0.3229  3.15162  0.38069
0.3245  3.14422  0.35541
0.3261  3.13544  0.33080
0.3277  3.12532  0.30714
0.3293  3.11409  0.28467
0.3309  3.10214  0.26349
0.3325  3.08975  0.24342
0.3341  3.07700  0.22428
0.3356  3.06388  0.20593
0.3372  3.05037  0.18832
0.3388  3.03636  0.17136
0.3404  3.02168  0.15522
0.3420  3.00635  0.14017
0.3436  2.99063  0.12647
0.3452  2.97495  0.11408
0.3468  2.95949  0.10274
0.3484  2.94425  0.09221
0.3500  2.92907  0.08243
0.3516  2.91395  0.07351
0.3532  2.89898  0.06554
0.3547  2.88440  0.05848
0.3563  2.87032  0.05217
0.3579  2.85678  0.04641
0.3595  2.84370  0.04107
0.3611  2.83102  0.03611
0.3627  2.81872  0.03152
0.3643  2.80684  0.02723
0.3659  2.79541  0.02312
0.3675  2.78433  0.01900
0.3691  2.77336  0.01470
0.3707  2.76204  0.01032
0.3723  2.75019  0.00633
0.3738  2.73793  0.00319
0.3754  2.72574  0.00125
0.3770  2.71420  0.00032
0.3786  2.70351  0.00003
0.3802  2.69369  0.00000
0.3818  2.68454  0.00000
0.3834  2.67589  0.00000
0.3850  2.66765  0.00000
0.3866  2.65977  0.00000
0.3882  2.65221  0.00000
0.3898  2.64494  0.00000
0.3914  2.63793  0.00000
0.3930  2.63117  0.00000
0.3945  2.62463  0.00000
0.3961  2.61830  0.00000
0.3977  2.61217  0.00000
0.3993  2.60623  0.00000
0.4009  2.60046  0.00000
0.4025  2.59485  0.00000
0.4041  2.58940  0.00000
0.4057  2.58410  0.00000
0.4073  2.57894  0.00000
0.4089  2.57391  0.00000
0.4105  2.56901  0.00000
0.4121  2.56423  0.00000
0.4137  2.55957  0.00000
0.4152  2.55503  0.00000
0.4168  2.55058  0.00000
0.4184  2.54625  0.00000
0.4200  2.54201  0.00000
0.4216  2.53787  0.00000
0.4232  2.53382  0.00000
0.4248  2.52986  0.00000
0.4264  2.52598  0.00000
0.4280  2.52218  0.00000
0.4296  2.51847  0.00000
0.4312  2.51483  0.00000
0.4328  2.51127  0.00000
0.4344  2.50778  0.00000
0.4359  2.50436  0.00000
0.4375  2.50100  0.00000
0.4391  2.49771  0.00000
0.4407  2.49449  0.00000
0.4423  2.49132  0.00000
0.4439  2.48822  0.00000
0.4455  2.48517  0.00000
0.4471  2.48218  0.00000
0.4487  2.47924  0.00000
0.4503  2.47636  0.00000
0.4519  2.47353  0.00000
0.4535  2.47074  0.00000
0.4551  2.46801  0.00000
0.4566  2.46532  0.00000
0.4582  2.46269  0.00000
0.4598  2.46009  0.00000
0.4614  2.45754  0.00000
0.4630  2.45503  0.00000
0.4646  2.45256  0.00000
0.4662  2.45014  0.00000
0.4678  2.44775  0.00000
0.4694  2.44540  0.00000
0.4710  2.44309  0.00000
0.4726  2.44082  0.00000
0.4742  2.43858  0.00000
0.4758  2.43638  0.00000
0.4773  2.43421  0.00000
0.4789  2.43207  0.00000
0.4805  2.42997  0.00000
0.4821  2.42790  0.00000
0.4837  2.42586  0.00000
0.4853  2.42385  0.00000
0.4869  2.42187  0.00000
0.4885  2.41992  0.00000
0.4901  2.41800  0.00000
0.4917  2.41610  0.00000
0.4933  2.41424  0.00000
0.4949  2.41240  0.00000
0.4964  2.41058  0.00000
0.4980  2.40880  0.00000
0.4996  2.40703  0.00000
0.5012  2.40529  0.00000
0.5028  2.40358  0.00000
0.5044  2.40189  0.00000
0.5060  2.40022  0.00000
0.5076  2.39857  0.00000
0.5092  2.39695  0.00000
0.5108  2.39535  0.00000
0.5124  2.39377  0.00000
0.5140  2.39221  0.00000
0.5155  2.39067  0.00000
0.5171  2.38915  0.00000
0.5187  2.38766  0.00000
0.5203  2.38618  0.00000
0.5219  2.38471  0.00000
0.5235  2.38327  0.00000
0.5251  2.38185  0.00000
0.5267  2.38044  0.00000
0.5283  2.37906  0.00000
0.5299  2.37769  0.00000
0.5315  2.37633  0.00000
0.5330  2.37500  0.00000
0.5346  2.37368  0.00000
0.5362  2.37237  0.00000
0.5378  2.37108  0.00000
0.5394  2.36981  0.00000
0.5410  2.36855  0.00000
0.5426  2.36731  0.00000
0.5442  2.36608  0.00000
0.5458  2.36487  0.00000
0.5474  2.36367  0.00000
0.5490  2.36249  0.00000
0.5505  2.36132  0.00000
0.5521  2.36016  0.00000
0.5537  2.35901  0.00000
0.5553  2.35788  0.00000
0.5569  2.35677  0.00000
0.5585  2.35566  0.00000
0.5601  2.35457  0.00000
0.5617  2.35349  0.00000
0.5633  2.35242  0.00000
0.5649  2.35136  0.00000
0.5664  2.35032  0.00000
0.5680  2.34929  0.00000
0.5696  2.34826  0.00000
0.5712  2.34725  0.00000
0.5728  2.34625  0.00000
0.5744  2.34526  0.00000
0.5760  2.34429  0.00000
0.5776  2.34332  0.00000
0.5792  2.34236  0.00000
0.5808  2.34141  0.00000
0.5823  2.34048  0.00000
0.5839  2.33955  0.00000
0.5855  2.33863  0.00000
0.5871  2.33772  0.00000
0.5887  2.33683  0.00000
0.5903  2.33594  0.00000
0.5919  2.33506  0.00000
0.5935  2.33419  0.00000
0.5951  2.33332  0.00000
0.5966  2.33247  0.00000
0.5982  2.33163  0.00000
0.5998  2.33079  0.00000
0.6014  2.32996  0.00000
0.6030  2.32914  0.00000
0.6046  2.32833  0.00000
0.6062  2.32753  0.00000
0.6078  2.32673  0.00000
0.6094  2.32595  0.00000
0.6109  2.32517  0.00000
0.6125  2.32439  0.00000
0.6141  2.32363  0.00000
0.6157  2.32287  0.00000
0.6173  2.32212  0.00000
0.6189  2.32138  0.00000
0.6205  2.32065  0.00000
0.6221  2.31992  0.00000
0.6237  2.31920  0.00000
0.6252  2.31848  0.00000
0.6268  2.31777  0.00000
0.6284  2.31707  0.00000
0.6300  2.31638  0.00000
0.6316  2.31569  0.00000
0.6332  2.31501  0.00000
0.6348  2.31433  0.00000
0.6364  2.31366  0.00000
0.6379  2.31300  0.00000
0.6395  2.31235  0.00000
0.6411  2.31169  0.00000
0.6427  2.31105  0.00000
0.6443  2.31041  0.00000
0.6459  2.30978  0.00000
0.6475  2.30915  0.00000
0.6491  2.30853  0.00000
0.6506  2.30791  0.00000
0.6522  2.30730  0.00000
0.6538  2.30669  0.00000
0.6554  2.30609  0.00000
0.6570  2.30550  0.00000
0.6586  2.30491  0.00000
0.6602  2.30432  0.00000
0.6617  2.30375  0.00000
0.6633  2.30317  0.00000
0.6649  2.30260  0.00000
0.6665  2.30204  0.00000
0.6681  2.30148  0.00000
0.6697  2.30092  0.00000
0.6713  2.30037  0.00000
0.6728  2.29983  0.00000
0.6744  2.29929  0.00000
0.6760  2.29875  0.00000
0.6776  2.29822  0.00000
0.6792  2.29769  0.00000
0.6808  2.29717  0.00000
0.6824  2.29665  0.00000
0.6839  2.29614  0.00000
0.6855  2.29563  0.00000
0.6871  2.29512  0.00000
0.6887  2.29462  0.00000
0.6903  2.29412  0.00000
0.6919  2.29363  0.00000
0.6934  2.29314  0.00000
0.6950  2.29266  0.00000
0.6966  2.29217  0.00000
0.6982  2.29170  0.00000
0.6998  2.29122  0.00000
0.7014  2.29075  0.00000
0.7030  2.29029  0.00000
0.7045  2.28983  0.00000
0.7061  2.28937  0.00000
0.7077  2.28891  0.00000
0.7093  2.28846  0.00000
0.7109  2.28801  0.00000
0.7125  2.28757  0.00000
0.7140  2.28713  0.00000
0.7156  2.28669  0.00000
0.7172  2.28626  0.00000
0.7188  2.28583  0.00000
0.7204  2.28540  0.00000
0.7220  2.28498  0.00000
0.7235  2.28456  0.00000
0.7251  2.28414  0.00000
0.7267  2.28372  0.00000
0.7283  2.28331  0.00000
0.7299  2.28290  0.00000
0.7314  2.28250  0.00000
0.7330  2.28210  0.00000
0.7346  2.28170  0.00000
0.7362  2.28130  0.00000
0.7378  2.28091  0.00000
0.7394  2.28052  0.00000
0.7409  2.28014  0.00000
0.7425  2.27975  0.00000
0.7441  2.27937  0.00000
0.7457  2.27899  0.00000
0.7473  2.27862  0.00000
0.7488  2.27824  0.00000
0.7504  2.27787  0.00000
0.7520  2.27751  0.00000
0.7536  2.27714  0.00000
0.7552  2.27678  0.00000
0.7567  2.27642  0.00000
0.7583  2.27606  0.00000
0.7599  2.27571  0.00000
0.7615  2.27536  0.00000
0.7631  2.27501  0.00000
0.7646  2.27466  0.00000
0.7662  2.27432  0.00000
0.7678  2.27398  0.00000
0.7694  2.27364  0.00000
0.7710  2.27330  0.00000
0.7725  2.27297  0.00000
0.7741  2.27264  0.00000
0.7757  2.27230  0.00000
0.7773  2.27198  0.00000
0.7789  2.27165  0.00000
0.7804  2.27133  0.00000
0.7820  2.27101  0.00000
0.7836  2.27069  0.00000
0.7852  2.27038  0.00000
0.7868  2.27006  0.00000
0.7883  2.26975  0.00000
0.7899  2.26944  0.00000
0.7915  2.26913  0.00000
0.7931  2.26883  0.00000
0.7946  2.26852  0.00000
0.7962  2.26822  0.00000
0.7978  2.26792  0.00000
0.7994  2.26762  0.00000
0.8010  2.26733  0.00000
0.8025  2.26704  0.00000
0.8041  2.26675  0.00000
0.8057  2.26646  0.00000
0.8073  2.26617  0.00000
0.8088  2.26588  0.00000
0.8104  2.26560  0.00000
0.8120  2.26532  0.00000
0.8136  2.26504  0.00000
0.8151  2.26476  0.00000
0.8167  2.26449  0.00000
0.8183  2.26421  0.00000
0.8199  2.26394  0.00000
0.8214  2.26367  0.00000
0.8230  2.26340  0.00000
0.8246  2.26313  0.00000
0.8262  2.26287  0.00000
0.8277  2.26260  0.00000
0.8293  2.26234  0.00000
0.8309  2.26208  0.00000
0.8325  2.26182  0.00000
0.8340  2.26156  0.00000
0.8356  2.26131  0.00000
0.8372  2.26105  0.00000
0.8388  2.26080  0.00000
0.8403  2.26055  0.00000
0.8419  2.26030  0.00000
0.8435  2.26006  0.00000
0.8451  2.25981  0.00000
0.8466  2.25957  0.00000
0.8482  2.25932  0.00000
0.8498  2.25908  0.00000
0.8513  2.25884  0.00000
0.8529  2.25860  0.00000
0.8545  2.25837  0.00000
0.8561  2.25813  0.00000
0.8576  2.25790  0.00000
0.8592  2.25767  0.00000
0.8608  2.25744  0.00000
0.8624  2.25720  0.00000
0.8639  2.25698  0.00000
0.8655  2.25675  0.00000
0.8671  2.25653  0.00000
0.8686  2.25630  0.00000
0.8702  2.25608  0.00000
0.8718  2.25586  0.00000
0.8733  2.25564  0.00000
0.8749  2.25542  0.00000
0.8765  2.25520  0.00000
0.8781  2.25499  0.00000
0.8796  2.25477  0.00000
0.8812  2.25456  0.00000
0.8828  2.25435  0.00000
0.8843  2.25414  0.00000
0.8859  2.25393  0.00000
0.8875  2.25372  0.00000
0.8890  2.25351  0.00000
0.8906  2.25331  0.00000
0.8922  2.25310  0.00000
0.8938  2.25290  0.00000
0.8953  2.25270  0.00000
0.8969  2.25249  0.00000
0.8985  2.25230  0.00000
0.9000  2.25210  0.00000
0.9016  2.25190  0.00000
0.9032  2.25170  0.00000
0.9047  2.25151  0.00000
0.9063  2.25131  0.00000
0.9079  2.25112  0.00000
0.9094  2.25093  0.00000
0.9110  2.25074  0.00000
0.9126  2.25055  0.00000
0.9141  2.25036  0.00000
0.9157  2.25017  0.00000
0.9173  2.24999  0.00000
0.9188  2.24980  0.00000
0.9204  2.24962  0.00000
0.9220  2.24943  0.00000
0.9235  2.24925  0.00000
0.9251  2.24907  0.00000
0.9267  2.24889  0.00000
0.9282  2.24871  0.00000
0.9298  2.24853  0.00000
0.9314  2.24836  0.00000
0.9329  2.24818  0.00000
0.9345  2.24800  0.00000
0.9360  2.24783  0.00000
0.9376  2.24766  0.00000
0.9392  2.24748  0.00000
0.9407  2.24731  0.00000
0.9423  2.24714  0.00000
0.9439  2.24697  0.00000
0.9454  2.24681  0.00000
0.9470  2.24664  0.00000
0.9486  2.24647  0.00000
0.9501  2.24630  0.00000
0.9517  2.24614  0.00000
0.9532  2.24598  0.00000
0.9548  2.24581  0.00000
0.9564  2.24565  0.00000
0.9579  2.24549  0.00000
0.9595  2.24533  0.00000
0.9610  2.24517  0.00000
0.9626  2.24501  0.00000
0.9642  2.24485  0.00000
0.9657  2.24470  0.00000
0.9673  2.24454  0.00000
0.9688  2.24439  0.00000
0.9704  2.24423  0.00000
0.9720  2.24408  0.00000
0.9735  2.24392  0.00000
0.9751  2.24377  0.00000
0.9766  2.24362  0.00000
0.9782  2.24347  0.00000
0.9798  2.24332  0.00000
0.9813  2.24317  0.00000
0.9829  2.24302  0.00000
0.9844  2.24288  0.00000
0.9860  2.24273  0.00000
0.9876  2.24259  0.00000
0.9891  2.24244  0.00000
0.9907  2.24230  0.00000
0.9922  2.24215  0.00000
0.9938  2.24201  0.00000
0.9953  2.24187  0.00000
0.9969  2.24173  0.00000
0.9985  2.24159  0.00000
1.0118  2.24041  0.00000
1.0152  2.24012  0.00000
1.0186  2.23983  0.00000
1.0220  2.23955  0.00000
1.0254  2.23927  0.00000
1.0288  2.23899  0.00000
1.0322  2.23871  0.00000
1.0356  2.23844  0.00000
1.0390  2.23817  0.00000
1.0424  2.23790  0.00000
1.0458  2.23763  0.00000
1.0492  2.23737  0.00000
1.0526  2.23711  0.00000
1.0560  2.23686  0.00000
1.0594  2.23660  0.00000
1.0628  2.23635  0.00000
1.0662  2.23610  0.00000
1.0696  2.23585  0.00000
1.0730  2.23561  0.00000
1.0764  2.23537  0.00000
1.0798  2.23513  0.00000
1.0832  2.23489  0.00000
1.0866  2.23466  0.00000
1.0900  2.23443  0.00000
1.0934  2.23420  0.00000
1.0968  2.23397  0.00000
1.1002  2.23374  0.00000
1.1036  2.23352  0.00000
1.1070  2.23330  0.00000
1.1104  2.23308  0.00000
1.1138  2.23286  0.00000
1.1173  2.23265  0.00000
1.1207  2.23244  0.00000
1.1241  2.23223  0.00000
1.1275  2.23202  0.00000
1.1309  2.23181  0.00000
1.1343  2.23161  0.00000
1.1377  2.23140  0.00000
1.1411  2.23120  0.00000
1.1445  2.23100  0.00000
1.1479  2.23081  0.00000
1.1514  2.23061  0.00000
1.1548  2.23042  0.00000
1.1582  2.23022  0.00000
1.1616  2.23003  0.00000
1.1650  2.22985  0.00000
1.1684  2.22966  0.00000
1.1718  2.22947  0.00000
1.1753  2.22929  0.00000
1.1787  2.22911  0.00000
1.1821  2.22893  0.00000
1.1855  2.22875  0.00000
1.1889  2.22858  0.00000
1.1923  2.22840  0.00000
1.1958  2.22823  0.00000
1.1992  2.22805  0.00000
1.2026  2.22788  0.00000
1.2060  2.22771  0.00000
1.2094  2.22755  0.00000
1.2129  2.22738  0.00000
1.2163  2.22722  0.00000
1.2197  2.22705  0.00000
1.2231  2.22689  0.00000
1.2265  2.22673  0.00000
1.2300  2.22657  0.00000
1.2334  2.22641  0.00000
1.2368  2.22626  0.00000
1.2402  2.22610  0.00000
1.2437  2.22595  0.00000
1.2471  2.22580  0.00000
1.2505  2.22565  0.00000
1.2539  2.22550  0.00000
1.2574  2.22535  0.00000
1.2608  2.22520  0.00000
1.2642  2.22506  0.00000
1.2676  2.22491  0.00000
1.2711  2.22477  0.00000
1.2745  2.22463  0.00000
1.2779  2.22448  0.00000
1.2814  2.22434  0.00000
1.2848  2.22420  0.00000
1.2882  2.22407  0.00000
1.2916  2.22393  0.00000
1.2951  2.22379  0.00000
1.2985  2.22366  0.00000
1.3019  2.22353  0.00000
1.3054  2.22340  0.00000
1.3088  2.22326  0.00000
1.3122  2.22313  0.00000
1.3157  2.22301  0.00000
1.3191  2.22288  0.00000
1.3225  2.22275  0.00000
1.3260  2.22262  0.00000
1.3294  2.22250  0.00000
1.3329  2.22237  0.00000
1.3363  2.22225  0.00000
1.3397  2.22213  0.00000
1.3432  2.22201  0.00000
1.3466  2.22189  0.00000
1.3500  2.22177  0.00000
1.3535  2.22165  0.00000
1.3569  2.22153  0.00000
1.3604  2.22142  0.00000
1.3638  2.22130  0.00000
1.3672  2.22119  0.00000
1.3707  2.22107  0.00000
1.3741  2.22096  0.00000
1.3776  2.22085  0.00000
1.3810  2.22074  0.00000
1.3844  2.22063  0.00000
1.3879  2.22052  0.00000
1.3913  2.22041  0.00000
1.3948  2.22030  0.00000
1.3982  2.22019  0.00000
