;UO 
;UO Co-h.ASC: Values of n and k for hexagonal cobalt (bulk and
;UO polycrystalline films) from various references in HOCII 
;UO (pg. 443). References are 3, 6, 7, 8, 9, 10, 13, 16, 21, 24.
;UO 
;UO From HANDBOOK OF OPTICAL CONSTANTS IN SOLIDS II edited by Edward D.
;UO Palik. Copyright (c) 1991 by Academic Press, Inc. Reproduced by
;UO permission of the publisher.
;UO ---------------------------------------------------------------
;UO  eV      cm-1             um        n       k        n     k
;UO ---------------------------------------------------------------
;N  7
;L  Energy[eV]  Wavelength[cm-1]  Wavelength[um]  n  k  n  k  
      eV    cm-1      um    n(e)    k(e)    n(o)    k(o)
    8.00  64520.  0.1550    0.95    1.09    0.95    1.09
    7.60  61350.  0.1631    0.93    1.17    0.93    1.17
    7.20  58140.  0.1722    0.91    1.26    0.91    1.26
    7.00  56490.  0.1771    0.91    1.32    0.91    1.32
    6.60  53220.  0.1879    0.91    1.46    0.91    1.46
    6.20  50000.  0.2000    0.97    1.62    0.98    1.62
    6.00  48400.  0.2066    1.03    1.68    1.04    1.69
    5.50  44370.  0.2254    1.18    1.76    1.19    1.77
    5.00  40230.  0.2480    1.22    1.83    1.24    1.84
    4.50  36300.  0.2755    1.24    1.98    1.26    1.99
    4.10  33070.  0.3024    1.25    2.15    1.30    2.17
    3.80  30650.  0.3263    1.28    2.33    1.33    2.33
    3.50  28230.  0.3542    1.34    2.56    1.39    2.54
    3.30  26620.  0.3757    1.42    2.72    1.46    2.70
    3.10  25000.  0.4000    1.51    2.88    1.55    2.86
    2.80  22580.  0.4428    1.66    3.13    1.72    3.11
    2.70  21770.  0.4592    1.73    3.24    1.79    3.19
    2.48  20000.  0.5000    1.88    3.40    1.90    3.34
    2.30  18550.  0.5391    2.01    3.59    1.99    3.56
    2.10  16940.  0.5904    2.13    3.85    2.13    3.89
    1.90  15320.  0.6526    2.31    4.18    2.41    4.27
    1.75  14120.  0.7085    2.56    4.50    2.72    4.54
    1.65  13310.  0.7514    2.74    4.66    2.93    4.66
    1.55  12500.  0.8000    2.96    4.87    3.14    4.83
    1.40  11290.  0.8856    3.37    5.09    3.55    5.05
    1.35  10890.  0.9184    3.49    5.14    3.67    5.09
    1.25  10080.  0.9919    3.70    5.28    3.90    5.25
    1.10   8873.   1.127    4.07    5.61    4.31    5.60
    1.00   8065.   1.240    4.46    5.86    4.83    5.94
    0.90   7258.   1.378    4.94    5.95    5.57    5.93
    0.80   6452.   1.550    5.17    5.89    6.08    5.61
    0.70   5645.   1.771    5.24    5.85    6.15    5.12
    0.65   5242.   1.908    5.12    5.93    5.99    5.10
    0.60   4839.   2.067    4.91    6.13    5.77    5.17
    0.55   4435.   2.255    4.65    6.56    5.50    5.36
    0.50   4032.   2.480    4.41    7.19    5.17    5.75
    0.45   3629.   2.756    4.24    8.12    4.86    6.46
    0.40   3226.   3.100    4.24    9.13    4.66    6.46
    0.35   2826.   3.543    4.18   10.38    4.54    8.47
    0.30   2419.   4.133    4.04   12.16    4.34   10.01
    0.25   2000.   5.000    3.98   14.59    4.19   12.12
    0.20   1613.   6.200    3.55   18.78    3.87   15.53
    0.17   1371.   7.294    4.14   21.81    4.02   18.08
    0.15   1210.   8.267    4.66   25.47    4.24   21.37
    0.13   1048.   9.538    5.38   30.52    4.78   25.88
    0.10   806.5   12.40    6.71   37.87    5.83   32.36
